File: csvFiles/20210227/temp12.CSV
[TEST CONDITION]
CondName,バッテリ温度特性試験20210227
ModelID,21
Average,0
CheckDut,FALSE
AutoFine,FALSE
DateTime,2021/02/27,21:40:39
Operator,米山まうむ
Notes,運用に向けてバッテリの温度特性を測定する
運用時の消費電流を鑑み，0.1C放電で行う
なおこんなに運用直前にやることではないので，次期プロジェクトの人間はもっと早い段階で行うことをお勧めする
BatteryName,UF103450P
NominalCapacity[mAh],1800.0
NominalVoltage[V],3.70000
Volume[ml],0.10
Weight[g],38.30
SoftOvp[V],4.40000
SoftUvp[V],2.50000
SoftOah[%],110
SoftOtp[°C],60.00000
DeltaT[s],10.00000
DeltaV[V],0.10000
DeltaI[A],0.10000
ImpRange[ohm],0
Frequency[Hz],1000
AutoRange,FALSE
AfterCharge,FALSE
AfterChargeRest,FALSE
AfterDischarge,FALSE
AfterDischargeRest,FALSE
CapacityRate_C[%],OFF
CapacityRate_D[%],OFF
Impedance_C[ohm],OFF
Impedance_D[ohm],OFF
SeqInfoName,

[CHARGE SHEET]
SheetNo,2
Range,HIGH
Mode,CC-CV
ChargeTime[s],0
RestTime[s],0
Current[A],0.00000
CvVolt[V],0.00000
CvTime[s],0
ItCurrent[A],OFF
ItTime[s],OFF

[DISCHARGE SHEET]
SheetNo,2
Range,HIGH
Mode,CC
DischargeTime[s],43200
RestTime[s],0
Current[A],0.18800
CapacityVolt[V],3.70000
CutoffVolt[V],2.75000

[DISCHARGE MONITOR]
TimeElapsed[s],StdState,OpnState,LowRange,Capacity[mAh],Power[Wh],Curr[A],Volt[V],VoltHi[V],VoltLo[V],Temp[°C],TermState,CellVolt[V],CellVoltHi[V],CellVoltLo[V],CellTemp[°C],(continued)
0,0x000E,0,FALSE,0.00000,0.00000,0.00000,4.09150,NAN,NAN,12.60000
40,0x000E,1,FALSE,1.94244,0.00789,0.18930,4.05850,NAN,NAN,12.60000
90,0x000E,1,FALSE,4.48972,0.01822,0.18930,4.05360,NAN,NAN,12.10000
140,0x000E,1,FALSE,6.93725,0.02814,0.18930,4.05050,NAN,NAN,11.90000
190,0x000E,1,FALSE,9.48500,0.03845,0.18930,4.04800,NAN,NAN,12.10000
240,0x000E,1,FALSE,11.93322,0.04836,0.18930,4.04600,NAN,NAN,12.10000
290,0x000E,1,FALSE,14.48228,0.05867,0.18930,4.04420,NAN,NAN,12.20000
340,0x000E,1,FALSE,16.93119,0.06857,0.18930,4.04240,NAN,NAN,12.00000
390,0x000E,1,FALSE,19.43064,0.07867,0.18930,4.04080,NAN,NAN,12.10000
440,0x000E,1,FALSE,21.98033,0.08897,0.18930,4.03920,NAN,NAN,12.40000
490,0x000E,1,FALSE,24.43036,0.09886,0.18930,4.03780,NAN,NAN,12.60000
540,0x000E,1,FALSE,26.98005,0.10916,0.18930,4.03650,NAN,NAN,12.70000
590,0x000E,1,FALSE,29.43008,0.11905,0.18930,4.03520,NAN,NAN,12.50000
640,0x000E,1,FALSE,31.97925,0.12933,0.18930,4.03380,NAN,NAN,12.00000
690,0x000E,1,FALSE,34.42844,0.13921,0.18930,4.03240,NAN,NAN,12.00000
740,0x000E,1,FALSE,36.97689,0.14948,0.18930,4.03100,NAN,NAN,12.20000
790,0x000E,1,FALSE,39.42647,0.15935,0.18930,4.02960,NAN,NAN,12.20000
840,0x000E,1,FALSE,41.92645,0.16942,0.18930,4.02830,NAN,NAN,12.20000
890,0x000E,1,FALSE,44.47625,0.17969,0.18930,4.02690,NAN,NAN,12.10000
940,0x000E,1,FALSE,46.92547,0.18955,0.18930,4.02570,NAN,NAN,12.30000
990,0x000E,1,FALSE,49.47297,0.19981,0.18930,4.02450,NAN,NAN,12.60000
1040,0x000E,1,FALSE,51.92048,0.20965,0.18930,4.02330,NAN,NAN,12.70000
1090,0x000E,1,FALSE,54.46811,0.21990,0.18930,4.02220,NAN,NAN,12.80000
1140,0x000E,1,FALSE,56.91544,0.22974,0.18930,4.02110,NAN,NAN,12.30000
1190,0x000E,1,FALSE,59.46294,0.23998,0.18930,4.01980,NAN,NAN,12.00000
1240,0x000E,1,FALSE,61.91036,0.24982,0.18930,4.01860,NAN,NAN,12.20000
1290,0x000E,1,FALSE,64.40739,0.25985,0.18930,4.01740,NAN,NAN,12.30000
1340,0x000E,1,FALSE,66.95464,0.27008,0.18930,4.01620,NAN,NAN,12.30000
1390,0x000E,1,FALSE,69.40247,0.27991,0.18930,4.01490,NAN,NAN,12.10000
1440,0x000E,1,FALSE,71.95006,0.29014,0.18930,4.01360,NAN,NAN,12.20000
1490,0x000E,1,FALSE,74.39739,0.29996,0.18930,4.01250,NAN,NAN,12.40000
1540,0x000E,1,FALSE,76.94553,0.31018,0.18930,4.01130,NAN,NAN,12.70000
1590,0x000E,1,FALSE,79.39364,0.32000,0.18930,4.01030,NAN,NAN,12.80000
1640,0x000E,1,FALSE,81.89184,0.33002,0.18930,4.00920,NAN,NAN,12.70000
1690,0x000E,1,FALSE,84.43912,0.34023,0.18930,4.00800,NAN,NAN,12.20000
1740,0x000E,1,FALSE,86.88611,0.35003,0.18930,4.00680,NAN,NAN,12.10000
1790,0x000E,1,FALSE,89.43372,0.36024,0.18930,4.00550,NAN,NAN,12.20000
1840,0x000E,1,FALSE,91.88223,0.37004,0.18930,4.00430,NAN,NAN,12.30000
1890,0x000E,1,FALSE,94.43050,0.38024,0.18930,4.00310,NAN,NAN,12.30000
1940,0x000E,1,FALSE,96.87955,0.39005,0.18930,4.00180,NAN,NAN,12.10000
1990,0x000E,1,FALSE,99.42892,0.40025,0.18930,4.00050,NAN,NAN,12.30000
2040,0x000E,1,FALSE,101.877,0.41004,0.18930,3.99930,NAN,NAN,12.60000
2090,0x000E,1,FALSE,104.374,0.42002,0.18930,3.99830,NAN,NAN,12.80000
2140,0x000E,1,FALSE,106.921,0.43020,0.18930,3.99720,NAN,NAN,12.90000
2190,0x000E,1,FALSE,109.368,0.43998,0.18930,3.99600,NAN,NAN,12.50000
2240,0x000E,1,FALSE,111.915,0.45016,0.18930,3.99480,NAN,NAN,12.00000
2290,0x000E,1,FALSE,114.362,0.45993,0.18930,3.99360,NAN,NAN,12.20000
2340,0x000E,1,FALSE,116.909,0.47010,0.18930,3.99240,NAN,NAN,12.30000
2390,0x000E,1,FALSE,119.356,0.47987,0.18930,3.99110,NAN,NAN,12.30000
2440,0x000E,1,FALSE,121.903,0.49003,0.18930,3.98990,NAN,NAN,12.20000
2490,0x000E,1,FALSE,124.351,0.49980,0.18930,3.98860,NAN,NAN,12.20000
2540,0x000E,1,FALSE,126.85,0.50976,0.18930,3.98740,NAN,NAN,12.40000
2590,0x000E,1,FALSE,129.399,0.51992,0.18930,3.98630,NAN,NAN,12.60000
2640,0x000E,1,FALSE,131.848,0.52968,0.18930,3.98530,NAN,NAN,12.80000
2690,0x000E,1,FALSE,134.396,0.53983,0.18930,3.98420,NAN,NAN,12.80000
2740,0x000E,1,FALSE,136.844,0.54959,0.18930,3.98310,NAN,NAN,12.30000
2790,0x000E,1,FALSE,139.392,0.55973,0.18930,3.98180,NAN,NAN,12.10000
2840,0x000E,1,FALSE,141.841,0.56948,0.18930,3.98060,NAN,NAN,12.20000
2890,0x000E,1,FALSE,144.39,0.57963,0.18930,3.97940,NAN,NAN,12.20000
2940,0x000E,1,FALSE,146.838,0.58937,0.18930,3.97830,NAN,NAN,12.30000
2990,0x000E,1,FALSE,149.337,0.59931,0.18930,3.97710,NAN,NAN,12.10000
3040,0x000E,1,FALSE,151.886,0.60944,0.18930,3.97590,NAN,NAN,12.20000
3090,0x000E,1,FALSE,154.335,0.61918,0.18930,3.97480,NAN,NAN,12.50000
3140,0x000E,1,FALSE,156.885,0.62931,0.18930,3.97380,NAN,NAN,12.70000
3190,0x000E,1,FALSE,159.334,0.63904,0.18930,3.97280,NAN,NAN,12.80000
3240,0x000E,1,FALSE,161.883,0.64917,0.18930,3.97180,NAN,NAN,12.50000
3290,0x000E,1,FALSE,164.332,0.65889,0.18930,3.97070,NAN,NAN,12.10000
3340,0x000E,1,FALSE,166.882,0.66901,0.18930,3.96950,NAN,NAN,12.10000
3390,0x000E,1,FALSE,169.331,0.67873,0.18930,3.96840,NAN,NAN,12.20000
3440,0x000E,1,FALSE,171.83,0.68865,0.18930,3.96730,NAN,NAN,12.30000
3490,0x000E,1,FALSE,174.38,0.69876,0.18930,3.96620,NAN,NAN,12.20000
3540,0x000E,1,FALSE,176.83,0.70847,0.18930,3.96510,NAN,NAN,12.10000
3590,0x000E,1,FALSE,179.378,0.71858,0.18930,3.96400,NAN,NAN,12.30000
3640,0x000E,1,FALSE,181.827,0.72828,0.18930,3.96300,NAN,NAN,12.60000
3690,0x000E,1,FALSE,184.375,0.73838,0.18930,3.96200,NAN,NAN,12.70000
3740,0x000E,1,FALSE,186.824,0.74808,0.18930,3.96110,NAN,NAN,12.80000
3790,0x000E,1,FALSE,189.373,0.75817,0.18930,3.96020,NAN,NAN,12.30000
3840,0x000E,1,FALSE,191.821,0.76787,0.18930,3.95910,NAN,NAN,12.00000
3890,0x000E,1,FALSE,194.321,0.77776,0.18930,3.95800,NAN,NAN,12.10000
3940,0x000E,1,FALSE,196.87,0.78785,0.18930,3.95690,NAN,NAN,12.20000
3990,0x000E,1,FALSE,199.318,0.79754,0.18930,3.95590,NAN,NAN,12.20000
4040,0x000E,1,FALSE,201.867,0.80761,0.18930,3.95480,NAN,NAN,12.00000
4090,0x000E,1,FALSE,204.315,0.81730,0.18930,3.95380,NAN,NAN,12.10000
4140,0x000E,1,FALSE,206.864,0.82737,0.18930,3.95280,NAN,NAN,12.40000
4190,0x000E,1,FALSE,209.313,0.83705,0.18930,3.95190,NAN,NAN,12.60000
4240,0x000E,1,FALSE,211.812,0.84692,0.18930,3.95100,NAN,NAN,12.70000
4290,0x000E,1,FALSE,214.362,0.85700,0.18930,3.95020,NAN,NAN,12.60000
4340,0x000E,1,FALSE,216.811,0.86667,0.18930,3.94920,NAN,NAN,12.10000
4390,0x000E,1,FALSE,219.359,0.87673,0.18930,3.94820,NAN,NAN,12.10000
4440,0x000E,1,FALSE,221.809,0.88640,0.18930,3.94720,NAN,NAN,12.20000
4490,0x000E,1,FALSE,224.357,0.89646,0.18930,3.94620,NAN,NAN,12.20000
4540,0x000E,1,FALSE,226.804,0.90611,0.18930,3.94520,NAN,NAN,12.20000
4590,0x000E,1,FALSE,229.352,0.91616,0.18930,3.94420,NAN,NAN,12.10000
4640,0x000E,1,FALSE,231.801,0.92582,0.18930,3.94320,NAN,NAN,12.30000
4690,0x000E,1,FALSE,234.3,0.93567,0.18930,3.94230,NAN,NAN,12.50000
4740,0x000E,1,FALSE,236.849,0.94572,0.18930,3.94150,NAN,NAN,12.70000
4790,0x000E,1,FALSE,239.297,0.95537,0.18930,3.94070,NAN,NAN,12.80000
4840,0x000E,1,FALSE,241.845,0.96540,0.18930,3.93980,NAN,NAN,12.40000
4890,0x000E,1,FALSE,244.293,0.97505,0.18930,3.93880,NAN,NAN,11.90000
4940,0x000E,1,FALSE,246.842,0.98508,0.18930,3.93780,NAN,NAN,12.10000
4990,0x000E,1,FALSE,249.29,0.99472,0.18930,3.93680,NAN,NAN,12.20000
5040,0x000E,1,FALSE,251.839,1.00475,0.18930,3.93580,NAN,NAN,12.20000
5090,0x000E,1,FALSE,254.287,1.01439,0.18930,3.93480,NAN,NAN,12.00000
5140,0x000E,1,FALSE,256.786,1.02422,0.18930,3.93380,NAN,NAN,12.10000
5190,0x000E,1,FALSE,259.335,1.03425,0.18930,3.93290,NAN,NAN,12.40000
5240,0x000E,1,FALSE,261.784,1.04388,0.18930,3.93200,NAN,NAN,12.60000
5290,0x000E,1,FALSE,264.333,1.05389,0.18930,3.93120,NAN,NAN,12.70000
5340,0x000E,1,FALSE,266.78,1.06352,0.18930,3.93040,NAN,NAN,12.70000
5390,0x000E,1,FALSE,269.328,1.07353,0.18930,3.92950,NAN,NAN,12.20000
5440,0x000E,1,FALSE,271.776,1.08314,0.18930,3.92860,NAN,NAN,12.00000
5490,0x000E,1,FALSE,274.324,1.09315,0.18930,3.92760,NAN,NAN,12.20000
5540,0x000E,1,FALSE,276.772,1.10277,0.18930,3.92660,NAN,NAN,12.20000
5590,0x000E,1,FALSE,279.271,1.11257,0.18930,3.92570,NAN,NAN,12.30000
5640,0x000E,1,FALSE,281.819,1.12257,0.18930,3.92470,NAN,NAN,12.10000
5690,0x000E,1,FALSE,284.267,1.13218,0.18930,3.92370,NAN,NAN,12.30000
5740,0x000E,1,FALSE,286.815,1.14218,0.18930,3.92280,NAN,NAN,12.50000
5790,0x000E,1,FALSE,289.263,1.15178,0.18930,3.92200,NAN,NAN,12.70000
5840,0x000E,1,FALSE,291.81,1.16177,0.18930,3.92120,NAN,NAN,12.80000
5890,0x000E,1,FALSE,294.257,1.17136,0.18930,3.92040,NAN,NAN,12.50000
5940,0x000E,1,FALSE,296.805,1.18135,0.18930,3.91950,NAN,NAN,12.00000
5990,0x000E,1,FALSE,299.253,1.19094,0.18930,3.91840,NAN,NAN,12.10000
6040,0x000E,1,FALSE,301.751,1.20073,0.18930,3.91750,NAN,NAN,12.20000
6090,0x000E,1,FALSE,304.299,1.21071,0.18930,3.91660,NAN,NAN,12.30000
6140,0x000E,1,FALSE,306.746,1.22029,0.18930,3.91560,NAN,NAN,12.20000
6190,0x000E,1,FALSE,309.294,1.23026,0.18930,3.91460,NAN,NAN,12.10000
6240,0x000E,1,FALSE,311.741,1.23984,0.18930,3.91370,NAN,NAN,12.40000
6290,0x000E,1,FALSE,314.287,1.24980,0.18930,3.91280,NAN,NAN,12.60000
6340,0x000E,1,FALSE,316.735,1.25938,0.18930,3.91200,NAN,NAN,12.70000
6390,0x000E,1,FALSE,319.233,1.26915,0.18930,3.91120,NAN,NAN,12.80000
6440,0x000E,1,FALSE,321.78,1.27911,0.18930,3.91030,NAN,NAN,12.30000
6490,0x000E,1,FALSE,324.228,1.28868,0.18930,3.90930,NAN,NAN,12.00000
6540,0x000E,1,FALSE,326.776,1.29864,0.18930,3.90830,NAN,NAN,12.20000
6590,0x000E,1,FALSE,329.223,1.30820,0.18930,3.90740,NAN,NAN,12.30000
6640,0x000E,1,FALSE,331.771,1.31816,0.18930,3.90650,NAN,NAN,12.30000
6690,0x000E,1,FALSE,334.219,1.32772,0.18930,3.90550,NAN,NAN,12.10000
6740,0x000E,1,FALSE,336.766,1.33766,0.18930,3.90450,NAN,NAN,12.20000
6790,0x000E,1,FALSE,339.214,1.34722,0.18930,3.90360,NAN,NAN,12.50000
6840,0x000E,1,FALSE,341.712,1.35697,0.18930,3.90280,NAN,NAN,12.70000
6890,0x000E,1,FALSE,344.259,1.36691,0.18930,3.90200,NAN,NAN,12.80000
6940,0x000E,1,FALSE,346.707,1.37646,0.18930,3.90120,NAN,NAN,12.70000
6990,0x000E,1,FALSE,349.254,1.38639,0.18930,3.90030,NAN,NAN,12.10000
7040,0x000E,1,FALSE,351.702,1.39594,0.18930,3.89930,NAN,NAN,12.10000
7090,0x000E,1,FALSE,354.249,1.40587,0.18930,3.89830,NAN,NAN,12.20000
7140,0x000E,1,FALSE,356.697,1.41541,0.18930,3.89740,NAN,NAN,12.30000
7190,0x000E,1,FALSE,359.245,1.42534,0.18930,3.89640,NAN,NAN,12.30000
7240,0x000E,1,FALSE,361.692,1.43487,0.18930,3.89540,NAN,NAN,12.10000
7290,0x000E,1,FALSE,364.188,1.44459,0.18930,3.89450,NAN,NAN,12.30000
7340,0x000E,1,FALSE,366.735,1.45451,0.18930,3.89360,NAN,NAN,12.60000
7390,0x000E,1,FALSE,369.181,1.46403,0.18930,3.89280,NAN,NAN,12.70000
7440,0x000E,1,FALSE,371.728,1.47394,0.18930,3.89190,NAN,NAN,12.80000
7490,0x000E,1,FALSE,374.175,1.48346,0.18930,3.89110,NAN,NAN,12.40000
7540,0x000E,1,FALSE,376.723,1.49338,0.18930,3.89010,NAN,NAN,12.00000
7590,0x000E,1,FALSE,379.171,1.50290,0.18930,3.88920,NAN,NAN,12.20000
7640,0x000E,1,FALSE,381.718,1.51280,0.18930,3.88820,NAN,NAN,12.30000
7690,0x000E,1,FALSE,384.166,1.52232,0.18930,3.88720,NAN,NAN,12.30000
7740,0x000E,1,FALSE,386.663,1.53202,0.18930,3.88620,NAN,NAN,12.10000
7790,0x000E,1,FALSE,389.211,1.54192,0.18930,3.88520,NAN,NAN,12.20000
7840,0x000E,1,FALSE,391.658,1.55143,0.18930,3.88430,NAN,NAN,12.40000
7890,0x000E,1,FALSE,394.204,1.56131,0.18930,3.88340,NAN,NAN,12.70000
7940,0x000E,1,FALSE,396.65,1.57081,0.18930,3.88260,NAN,NAN,12.80000
7990,0x000E,1,FALSE,399.195,1.58069,0.18930,3.88180,NAN,NAN,12.70000
8040,0x000E,1,FALSE,401.642,1.59019,0.18930,3.88090,NAN,NAN,12.20000
8090,0x000E,1,FALSE,404.189,1.60007,0.18930,3.87980,NAN,NAN,12.10000
8140,0x000E,1,FALSE,406.635,1.60956,0.18930,3.87880,NAN,NAN,12.20000
8190,0x000E,1,FALSE,409.132,1.61924,0.18930,3.87780,NAN,NAN,12.40000
8240,0x000E,1,FALSE,411.679,1.62912,0.18930,3.87690,NAN,NAN,12.40000
8290,0x000E,1,FALSE,414.126,1.63860,0.18930,3.87580,NAN,NAN,12.10000
8340,0x000E,1,FALSE,416.672,1.64847,0.18930,3.87480,NAN,NAN,12.30000
8390,0x000E,1,FALSE,419.119,1.65795,0.18930,3.87380,NAN,NAN,12.60000
8440,0x000E,1,FALSE,421.667,1.66782,0.18930,3.87290,NAN,NAN,12.70000
8490,0x000E,1,FALSE,424.114,1.67729,0.18930,3.87210,NAN,NAN,12.80000
8540,0x000E,1,FALSE,426.613,1.68697,0.18930,3.87120,NAN,NAN,12.50000
8590,0x000E,1,FALSE,429.16,1.69683,0.18930,3.87010,NAN,NAN,12.00000
8640,0x000E,1,FALSE,431.608,1.70630,0.18930,3.86900,NAN,NAN,12.20000
8690,0x000E,1,FALSE,434.155,1.71615,0.18930,3.86800,NAN,NAN,12.30000
8740,0x000E,1,FALSE,436.603,1.72562,0.18930,3.86690,NAN,NAN,12.30000
8790,0x000E,1,FALSE,439.151,1.73547,0.18930,3.86580,NAN,NAN,12.20000
8840,0x000E,1,FALSE,441.6,1.74493,0.18930,3.86470,NAN,NAN,12.20000
8890,0x000E,1,FALSE,444.149,1.75478,0.18930,3.86360,NAN,NAN,12.40000
8940,0x000E,1,FALSE,446.598,1.76424,0.18930,3.86260,NAN,NAN,12.60000
8990,0x000E,1,FALSE,449.095,1.77389,0.18930,3.86160,NAN,NAN,12.80000
9040,0x000E,1,FALSE,451.642,1.78372,0.18930,3.86070,NAN,NAN,12.80000
9090,0x000E,1,FALSE,454.09,1.79317,0.18930,3.85970,NAN,NAN,12.40000
9140,0x000E,1,FALSE,456.639,1.80300,0.18930,3.85850,NAN,NAN,12.10000
9190,0x000E,1,FALSE,459.086,1.81244,0.18930,3.85740,NAN,NAN,12.20000
9240,0x000E,1,FALSE,461.634,1.82227,0.18930,3.85620,NAN,NAN,12.30000
9290,0x000E,1,FALSE,464.082,1.83171,0.18930,3.85510,NAN,NAN,12.40000
9340,0x000E,1,FALSE,466.63,1.84153,0.18930,3.85390,NAN,NAN,12.20000
9390,0x000E,1,FALSE,469.078,1.85096,0.18930,3.85260,NAN,NAN,12.30000
9440,0x000E,1,FALSE,471.576,1.86058,0.18930,3.85150,NAN,NAN,12.50000
9490,0x000E,1,FALSE,474.124,1.87039,0.18930,3.85040,NAN,NAN,12.70000
9540,0x000E,1,FALSE,476.573,1.87982,0.18930,3.84940,NAN,NAN,12.80000
9590,0x000E,1,FALSE,479.122,1.88963,0.18930,3.84830,NAN,NAN,12.70000
9640,0x000E,1,FALSE,481.571,1.89905,0.18930,3.84710,NAN,NAN,12.10000
9690,0x000E,1,FALSE,484.119,1.90885,0.18930,3.84580,NAN,NAN,12.10000
9740,0x000E,1,FALSE,486.568,1.91827,0.18930,3.84460,NAN,NAN,12.30000
9790,0x000E,1,FALSE,489.117,1.92807,0.18930,3.84330,NAN,NAN,12.30000
9840,0x000E,1,FALSE,491.566,1.93748,0.18930,3.84210,NAN,NAN,12.30000
9890,0x000E,1,FALSE,494.066,1.94708,0.18930,3.84070,NAN,NAN,12.20000
9940,0x000E,1,FALSE,496.615,1.95687,0.18930,3.83940,NAN,NAN,12.40000
9990,0x000E,1,FALSE,499.065,1.96627,0.18930,3.83820,NAN,NAN,12.60000
10040,0x000E,1,FALSE,501.614,1.97605,0.18930,3.83700,NAN,NAN,12.80000
10090,0x000E,1,FALSE,504.063,1.98545,0.18930,3.83590,NAN,NAN,12.90000
10140,0x000E,1,FALSE,506.611,1.99522,0.18930,3.83480,NAN,NAN,12.40000
10190,0x000E,1,FALSE,509.06,2.00461,0.18930,3.83350,NAN,NAN,12.10000
10240,0x000E,1,FALSE,511.609,2.01438,0.18930,3.83210,NAN,NAN,12.20000
10290,0x000E,1,FALSE,514.056,2.02375,0.18930,3.83090,NAN,NAN,12.30000
10340,0x000E,1,FALSE,516.555,2.03332,0.18930,3.82960,NAN,NAN,12.40000
10390,0x000E,1,FALSE,519.103,2.04308,0.18930,3.82830,NAN,NAN,12.20000
10440,0x000E,1,FALSE,521.551,2.05245,0.18930,3.82700,NAN,NAN,12.30000
10490,0x000E,1,FALSE,524.098,2.06219,0.18930,3.82580,NAN,NAN,12.50000
10540,0x000E,1,FALSE,526.547,2.07156,0.18930,3.82470,NAN,NAN,12.70000
10590,0x000E,1,FALSE,529.094,2.08130,0.18930,3.82360,NAN,NAN,12.90000
10640,0x000E,1,FALSE,531.542,2.09066,0.18930,3.82260,NAN,NAN,12.70000
10690,0x000E,1,FALSE,534.09,2.10040,0.18930,3.82150,NAN,NAN,12.20000
10740,0x000E,1,FALSE,536.589,2.10994,0.18930,3.82020,NAN,NAN,12.10000
10790,0x000E,1,FALSE,539.037,2.11929,0.18930,3.81910,NAN,NAN,12.30000
10840,0x000E,1,FALSE,541.585,2.12902,0.18930,3.81800,NAN,NAN,12.30000
10890,0x000E,1,FALSE,544.033,2.13837,0.18930,3.81690,NAN,NAN,12.40000
10940,0x000E,1,FALSE,546.582,2.14809,0.18930,3.81570,NAN,NAN,12.10000
10990,0x000E,1,FALSE,549.03,2.15743,0.18930,3.81470,NAN,NAN,12.30000
11040,0x000E,1,FALSE,551.578,2.16715,0.18930,3.81360,NAN,NAN,12.50000
11090,0x000E,1,FALSE,554.026,2.17649,0.18930,3.81280,NAN,NAN,12.70000
11140,0x000E,1,FALSE,556.525,2.18601,0.18930,3.81190,NAN,NAN,12.80000
11190,0x000E,1,FALSE,559.072,2.19572,0.18930,3.81110,NAN,NAN,12.50000
11240,0x000E,1,FALSE,561.521,2.20505,0.18930,3.81010,NAN,NAN,12.00000
11290,0x000E,1,FALSE,564.07,2.21476,0.18930,3.80910,NAN,NAN,12.20000
11340,0x000E,1,FALSE,566.518,2.22408,0.18930,3.80820,NAN,NAN,12.30000
11390,0x000E,1,FALSE,569.068,2.23379,0.18930,3.80730,NAN,NAN,12.30000
11440,0x000E,1,FALSE,571.516,2.24311,0.18930,3.80640,NAN,NAN,12.20000
11490,0x000E,1,FALSE,574.064,2.25281,0.18930,3.80540,NAN,NAN,12.20000
11540,0x000E,1,FALSE,576.513,2.26212,0.18930,3.80460,NAN,NAN,12.40000
11590,0x000E,1,FALSE,579.011,2.27163,0.18930,3.80390,NAN,NAN,12.60000
11640,0x000E,1,FALSE,581.559,2.28132,0.18930,3.80320,NAN,NAN,12.80000
11690,0x000E,1,FALSE,584.007,2.29063,0.18930,3.80260,NAN,NAN,12.80000
11740,0x000E,1,FALSE,586.555,2.30031,0.18930,3.80190,NAN,NAN,12.30000
11790,0x000E,1,FALSE,589.002,2.30962,0.18930,3.80110,NAN,NAN,12.00000
11840,0x000E,1,FALSE,591.55,2.31930,0.18930,3.80030,NAN,NAN,12.20000
11890,0x000E,1,FALSE,593.997,2.32860,0.18930,3.79950,NAN,NAN,12.30000
11940,0x000E,1,FALSE,596.545,2.33828,0.18930,3.79880,NAN,NAN,12.30000
11990,0x000E,1,FALSE,598.992,2.34757,0.18930,3.79800,NAN,NAN,12.10000
12040,0x000E,1,FALSE,601.49,2.35706,0.18930,3.79730,NAN,NAN,12.20000
12090,0x000E,1,FALSE,604.039,2.36673,0.18930,3.79660,NAN,NAN,12.50000
12140,0x000E,1,FALSE,606.487,2.37603,0.18930,3.79600,NAN,NAN,12.70000
12190,0x000E,1,FALSE,609.035,2.38570,0.18930,3.79550,NAN,NAN,12.80000
12240,0x000E,1,FALSE,611.483,2.39499,0.18930,3.79500,NAN,NAN,12.60000
12290,0x000E,1,FALSE,614.03,2.40465,0.18930,3.79430,NAN,NAN,12.00000
12340,0x000E,1,FALSE,616.476,2.41393,0.18930,3.79360,NAN,NAN,12.10000
12390,0x000E,1,FALSE,619.023,2.42359,0.18930,3.79290,NAN,NAN,12.20000
12440,0x000E,1,FALSE,621.471,2.43287,0.18930,3.79230,NAN,NAN,12.30000
12490,0x000E,1,FALSE,623.967,2.44234,0.18930,3.79170,NAN,NAN,12.20000
12540,0x000E,1,FALSE,626.515,2.45200,0.18930,3.79100,NAN,NAN,12.10000
12590,0x000E,1,FALSE,628.962,2.46127,0.18930,3.79030,NAN,NAN,12.30000
12640,0x000E,1,FALSE,631.51,2.47093,0.18930,3.78980,NAN,NAN,12.60000
12690,0x000E,1,FALSE,633.958,2.48021,0.18930,3.78930,NAN,NAN,12.70000
12740,0x000E,1,FALSE,636.506,2.48986,0.18930,3.78890,NAN,NAN,12.80000
12790,0x000E,1,FALSE,638.955,2.49914,0.18930,3.78840,NAN,NAN,12.30000
12840,0x000E,1,FALSE,641.502,2.50879,0.18930,3.78770,NAN,NAN,12.00000
12890,0x000E,1,FALSE,643.95,2.51805,0.18930,3.78710,NAN,NAN,12.20000
12940,0x000E,1,FALSE,646.447,2.52751,0.18930,3.78650,NAN,NAN,12.30000
12990,0x000E,1,FALSE,648.994,2.53715,0.18930,3.78590,NAN,NAN,12.30000
13040,0x000E,1,FALSE,651.441,2.54642,0.18930,3.78530,NAN,NAN,12.10000
13090,0x000E,1,FALSE,653.987,2.55605,0.18930,3.78470,NAN,NAN,12.20000
13140,0x000E,1,FALSE,656.434,2.56531,0.18930,3.78420,NAN,NAN,12.40000
13190,0x000E,1,FALSE,658.98,2.57495,0.18930,3.78370,NAN,NAN,12.60000
13240,0x000E,1,FALSE,661.427,2.58420,0.18930,3.78330,NAN,NAN,12.80000
13290,0x000E,1,FALSE,663.925,2.59365,0.18930,3.78280,NAN,NAN,12.70000
13340,0x000E,1,FALSE,666.473,2.60329,0.18930,3.78230,NAN,NAN,12.10000
13390,0x000E,1,FALSE,668.921,2.61255,0.18930,3.78170,NAN,NAN,12.10000
13440,0x000E,1,FALSE,671.468,2.62218,0.18930,3.78110,NAN,NAN,12.20000
13490,0x000E,1,FALSE,673.916,2.63143,0.18930,3.78060,NAN,NAN,12.20000
13540,0x000E,1,FALSE,676.462,2.64106,0.18930,3.78010,NAN,NAN,12.20000
13590,0x000E,1,FALSE,678.909,2.65031,0.18930,3.77950,NAN,NAN,12.10000
13640,0x000E,1,FALSE,681.457,2.65993,0.18930,3.77890,NAN,NAN,12.30000
13690,0x000E,1,FALSE,683.904,2.66918,0.18930,3.77850,NAN,NAN,12.50000
13740,0x000E,1,FALSE,686.402,2.67862,0.18930,3.77800,NAN,NAN,12.70000
13790,0x000E,1,FALSE,688.948,2.68823,0.18930,3.77770,NAN,NAN,12.80000
13840,0x000E,1,FALSE,691.395,2.69748,0.18930,3.77730,NAN,NAN,12.50000
13890,0x000E,1,FALSE,693.941,2.70709,0.18930,3.77670,NAN,NAN,12.00000
13940,0x000E,1,FALSE,696.388,2.71633,0.18930,3.77620,NAN,NAN,12.10000
13990,0x000E,1,FALSE,698.934,2.72595,0.18930,3.77570,NAN,NAN,12.20000
14040,0x000E,1,FALSE,701.382,2.73519,0.18930,3.77520,NAN,NAN,12.30000
14090,0x000E,1,FALSE,703.928,2.74480,0.18930,3.77460,NAN,NAN,12.10000
14140,0x000E,1,FALSE,706.375,2.75403,0.18930,3.77410,NAN,NAN,12.10000
14190,0x000E,1,FALSE,708.873,2.76346,0.18930,3.77360,NAN,NAN,12.40000
14240,0x000E,1,FALSE,711.42,2.77307,0.18930,3.77320,NAN,NAN,12.60000
14290,0x000E,1,FALSE,713.867,2.78230,0.18930,3.77280,NAN,NAN,12.80000
14340,0x000E,1,FALSE,716.414,2.79191,0.18930,3.77250,NAN,NAN,12.70000
14390,0x000E,1,FALSE,718.862,2.80114,0.18930,3.77210,NAN,NAN,12.20000
14440,0x000E,1,FALSE,721.409,2.81075,0.18930,3.77150,NAN,NAN,12.00000
14490,0x000E,1,FALSE,723.856,2.81998,0.18930,3.77100,NAN,NAN,12.20000
14540,0x000E,1,FALSE,726.403,2.82958,0.18930,3.77060,NAN,NAN,12.30000
14590,0x000E,1,FALSE,728.851,2.83881,0.18930,3.77010,NAN,NAN,12.30000
14640,0x000E,1,FALSE,731.348,2.84822,0.18930,3.76950,NAN,NAN,12.10000
14690,0x000E,1,FALSE,733.895,2.85782,0.18930,3.76900,NAN,NAN,12.20000
14740,0x000E,1,FALSE,736.343,2.86705,0.18930,3.76860,NAN,NAN,12.50000
14790,0x000E,1,FALSE,738.89,2.87664,0.18930,3.76820,NAN,NAN,12.70000
14840,0x000E,1,FALSE,741.338,2.88587,0.18930,3.76790,NAN,NAN,12.80000
14890,0x000E,1,FALSE,743.886,2.89547,0.18930,3.76760,NAN,NAN,12.60000
14940,0x000E,1,FALSE,746.334,2.90469,0.18930,3.76710,NAN,NAN,12.10000
14990,0x000E,1,FALSE,748.881,2.91428,0.18930,3.76660,NAN,NAN,12.10000
15040,0x000E,1,FALSE,751.328,2.92350,0.18930,3.76620,NAN,NAN,12.20000
15090,0x000E,1,FALSE,753.825,2.93290,0.18930,3.76570,NAN,NAN,12.30000
15140,0x000E,1,FALSE,756.372,2.94249,0.18930,3.76520,NAN,NAN,12.20000
15190,0x000E,1,FALSE,758.82,2.95171,0.18930,3.76470,NAN,NAN,12.10000
15240,0x000E,1,FALSE,761.368,2.96130,0.18930,3.76430,NAN,NAN,12.30000
15290,0x000E,1,FALSE,763.815,2.97051,0.18930,3.76390,NAN,NAN,12.60000
15340,0x000E,1,FALSE,766.363,2.98010,0.18930,3.76360,NAN,NAN,12.70000
15390,0x000E,1,FALSE,768.81,2.98931,0.18930,3.76330,NAN,NAN,12.80000
15440,0x000E,1,FALSE,771.307,2.99870,0.18930,3.76300,NAN,NAN,12.40000
15490,0x000E,1,FALSE,773.854,3.00828,0.18930,3.76250,NAN,NAN,12.00000
15540,0x000E,1,FALSE,776.301,3.01749,0.18930,3.76210,NAN,NAN,12.20000
15590,0x000E,1,FALSE,778.848,3.02707,0.18930,3.76160,NAN,NAN,12.30000
15640,0x000E,1,FALSE,781.294,3.03627,0.18930,3.76120,NAN,NAN,12.30000
15690,0x000E,1,FALSE,783.841,3.04585,0.18930,3.76070,NAN,NAN,12.10000
15740,0x000E,1,FALSE,786.287,3.05505,0.18930,3.76030,NAN,NAN,12.20000
15790,0x000E,1,FALSE,788.833,3.06462,0.18930,3.75990,NAN,NAN,12.40000
15840,0x000E,1,FALSE,791.28,3.07382,0.18930,3.75960,NAN,NAN,12.60000
15890,0x000E,1,FALSE,793.777,3.08320,0.18930,3.75930,NAN,NAN,12.80000
15940,0x000E,1,FALSE,796.323,3.09278,0.18930,3.75900,NAN,NAN,12.70000
15990,0x000E,1,FALSE,798.77,3.10197,0.18930,3.75860,NAN,NAN,12.10000
16040,0x000E,1,FALSE,801.317,3.11155,0.18930,3.75820,NAN,NAN,12.10000
16090,0x000E,1,FALSE,803.765,3.12074,0.18930,3.75770,NAN,NAN,12.20000
16140,0x000E,1,FALSE,806.311,3.13031,0.18930,3.75730,NAN,NAN,12.30000
16190,0x000E,1,FALSE,808.759,3.13950,0.18930,3.75690,NAN,NAN,12.30000
16240,0x000E,1,FALSE,811.305,3.14907,0.18930,3.75650,NAN,NAN,12.10000
16290,0x000E,1,FALSE,813.751,3.15826,0.18930,3.75600,NAN,NAN,12.30000
16340,0x000E,1,FALSE,816.248,3.16763,0.18930,3.75570,NAN,NAN,12.50000
16390,0x000E,1,FALSE,818.795,3.17720,0.18930,3.75540,NAN,NAN,12.70000
16440,0x000E,1,FALSE,821.242,3.18639,0.18930,3.75520,NAN,NAN,12.80000
16490,0x000E,1,FALSE,823.789,3.19595,0.18930,3.75490,NAN,NAN,12.50000
16540,0x000E,1,FALSE,826.236,3.20514,0.18930,3.75450,NAN,NAN,12.00000
16590,0x000E,1,FALSE,828.784,3.21470,0.18930,3.75410,NAN,NAN,12.20000
16640,0x000E,1,FALSE,831.231,3.22389,0.18930,3.75370,NAN,NAN,12.30000
16690,0x000E,1,FALSE,833.779,3.23345,0.18930,3.75330,NAN,NAN,12.30000
16740,0x000E,1,FALSE,836.226,3.24264,0.18930,3.75290,NAN,NAN,12.20000
16790,0x000E,1,FALSE,838.724,3.25201,0.18930,3.75250,NAN,NAN,12.10000
16840,0x000E,1,FALSE,841.273,3.26157,0.18930,3.75210,NAN,NAN,12.40000
16890,0x000E,1,FALSE,843.72,3.27075,0.18930,3.75180,NAN,NAN,12.60000
16940,0x000E,1,FALSE,846.267,3.28031,0.18930,3.75160,NAN,NAN,12.70000
16990,0x000E,1,FALSE,848.715,3.28949,0.18940,3.75140,NAN,NAN,12.80000
17040,0x000E,1,FALSE,851.262,3.29904,0.18930,3.75100,NAN,NAN,12.30000
17090,0x000E,1,FALSE,853.708,3.30822,0.18930,3.75070,NAN,NAN,12.00000
17140,0x000E,1,FALSE,856.255,3.31777,0.18930,3.75030,NAN,NAN,12.20000
17190,0x000E,1,FALSE,858.702,3.32694,0.18930,3.74990,NAN,NAN,12.30000
17240,0x000E,1,FALSE,861.199,3.33631,0.18930,3.74950,NAN,NAN,12.30000
17290,0x000E,1,FALSE,863.746,3.34586,0.18930,3.74910,NAN,NAN,12.10000
17340,0x000E,1,FALSE,866.193,3.35503,0.18930,3.74880,NAN,NAN,12.20000
17390,0x000E,1,FALSE,868.739,3.36457,0.18930,3.74850,NAN,NAN,12.50000
17440,0x000E,1,FALSE,871.186,3.37374,0.18930,3.74820,NAN,NAN,12.70000
17490,0x000E,1,FALSE,873.733,3.38329,0.18930,3.74800,NAN,NAN,12.80000
17540,0x000E,1,FALSE,876.18,3.39246,0.18930,3.74780,NAN,NAN,12.60000
17590,0x000E,1,FALSE,878.676,3.40181,0.18930,3.74750,NAN,NAN,12.10000
17640,0x000E,1,FALSE,881.224,3.41136,0.18930,3.74710,NAN,NAN,12.20000
17690,0x000E,1,FALSE,883.671,3.42053,0.18930,3.74670,NAN,NAN,12.30000
17740,0x000E,1,FALSE,886.218,3.43007,0.18930,3.74640,NAN,NAN,12.30000
17790,0x000E,1,FALSE,888.666,3.43924,0.18940,3.74610,NAN,NAN,12.20000
17840,0x000E,1,FALSE,891.213,3.44878,0.18930,3.74570,NAN,NAN,12.20000
17890,0x000E,1,FALSE,893.661,3.45795,0.18930,3.74540,NAN,NAN,12.40000
17940,0x000E,1,FALSE,896.209,3.46749,0.18930,3.74520,NAN,NAN,12.60000
17990,0x000E,1,FALSE,898.657,3.47666,0.18930,3.74490,NAN,NAN,12.80000
18040,0x000E,1,FALSE,901.154,3.48601,0.18930,3.74480,NAN,NAN,12.90000
18090,0x000E,1,FALSE,903.701,3.49555,0.18930,3.74450,NAN,NAN,12.40000
18140,0x000E,1,FALSE,906.149,3.50471,0.18930,3.74420,NAN,NAN,12.10000
18190,0x000E,1,FALSE,908.697,3.51425,0.18930,3.74380,NAN,NAN,12.20000
18240,0x000E,1,FALSE,911.145,3.52341,0.18930,3.74350,NAN,NAN,12.30000
18290,0x000E,1,FALSE,913.692,3.53295,0.18930,3.74320,NAN,NAN,12.30000
18340,0x000E,1,FALSE,916.14,3.54211,0.18930,3.74290,NAN,NAN,12.10000
18390,0x000E,1,FALSE,918.688,3.55165,0.18930,3.74250,NAN,NAN,12.30000
18440,0x000E,1,FALSE,921.136,3.56081,0.18930,3.74230,NAN,NAN,12.50000
18490,0x000E,1,FALSE,923.634,3.57015,0.18930,3.74200,NAN,NAN,12.70000
18540,0x000E,1,FALSE,926.182,3.57969,0.18930,3.74190,NAN,NAN,12.80000
18590,0x000E,1,FALSE,928.63,3.58885,0.18930,3.74170,NAN,NAN,12.70000
18640,0x000E,1,FALSE,931.178,3.59838,0.18930,3.74140,NAN,NAN,12.20000
18690,0x000E,1,FALSE,933.625,3.60753,0.18930,3.74110,NAN,NAN,12.20000
18740,0x000E,1,FALSE,936.172,3.61706,0.18930,3.74080,NAN,NAN,12.30000
18790,0x000E,1,FALSE,938.62,3.62622,0.18930,3.74060,NAN,NAN,12.40000
18840,0x000E,1,FALSE,941.168,3.63575,0.18930,3.74030,NAN,NAN,12.30000
18890,0x000E,1,FALSE,943.616,3.64490,0.18930,3.74000,NAN,NAN,12.20000
18940,0x000E,1,FALSE,946.113,3.65424,0.18930,3.73970,NAN,NAN,12.40000
18990,0x000E,1,FALSE,948.66,3.66377,0.18930,3.73950,NAN,NAN,12.70000
19040,0x000E,1,FALSE,951.108,3.67292,0.18930,3.73930,NAN,NAN,12.80000
19090,0x000E,1,FALSE,953.655,3.68244,0.18930,3.73920,NAN,NAN,12.90000
19140,0x000E,1,FALSE,956.104,3.69160,0.18930,3.73900,NAN,NAN,12.40000
19190,0x000E,1,FALSE,958.652,3.70112,0.18930,3.73870,NAN,NAN,12.10000
19240,0x000E,1,FALSE,961.101,3.71028,0.18930,3.73840,NAN,NAN,12.30000
19290,0x000E,1,FALSE,963.65,3.71981,0.18930,3.73810,NAN,NAN,12.30000
19340,0x000E,1,FALSE,966.098,3.72896,0.18930,3.73790,NAN,NAN,12.40000
19390,0x000E,1,FALSE,968.597,3.73830,0.18930,3.73760,NAN,NAN,12.20000
19440,0x000E,1,FALSE,971.146,3.74782,0.18930,3.73730,NAN,NAN,12.30000
19490,0x000E,1,FALSE,973.594,3.75697,0.18930,3.73710,NAN,NAN,12.50000
19540,0x000E,1,FALSE,976.143,3.76649,0.18930,3.73690,NAN,NAN,12.70000
19590,0x000E,1,FALSE,978.591,3.77564,0.18930,3.73680,NAN,NAN,12.90000
19640,0x000E,1,FALSE,981.139,3.78516,0.18930,3.73670,NAN,NAN,12.70000
19690,0x000E,1,FALSE,983.587,3.79431,0.18930,3.73650,NAN,NAN,12.20000
19740,0x000E,1,FALSE,986.135,3.80383,0.18930,3.73620,NAN,NAN,12.20000
19790,0x000E,1,FALSE,988.633,3.81316,0.18930,3.73590,NAN,NAN,12.30000
19840,0x000E,1,FALSE,991.081,3.82230,0.18930,3.73570,NAN,NAN,12.40000
19890,0x000E,1,FALSE,993.628,3.83182,0.18930,3.73540,NAN,NAN,12.40000
19940,0x000E,1,FALSE,996.075,3.84096,0.18930,3.73520,NAN,NAN,12.20000
19990,0x000E,1,FALSE,998.622,3.85047,0.18930,3.73490,NAN,NAN,12.40000
20040,0x000E,1,FALSE,1001.07,3.85961,0.18930,3.73480,NAN,NAN,12.70000
20090,0x000E,1,FALSE,1003.62,3.86912,0.18930,3.73460,NAN,NAN,12.80000
20140,0x000E,1,FALSE,1006.06,3.87826,0.18930,3.73450,NAN,NAN,12.90000
20190,0x000E,1,FALSE,1008.56,3.88758,0.18930,3.73430,NAN,NAN,12.50000
20240,0x000E,1,FALSE,1011.11,3.89709,0.18930,3.73410,NAN,NAN,12.10000
20290,0x000E,1,FALSE,1013.55,3.90623,0.18930,3.73380,NAN,NAN,12.30000
20340,0x000E,1,FALSE,1016.1,3.91573,0.18930,3.73360,NAN,NAN,12.40000
20390,0x000E,1,FALSE,1018.55,3.92487,0.18930,3.73340,NAN,NAN,12.40000
20440,0x000E,1,FALSE,1021.1,3.93438,0.18930,3.73310,NAN,NAN,12.20000
20490,0x000E,1,FALSE,1023.54,3.94352,0.18930,3.73280,NAN,NAN,12.30000
20540,0x000E,1,FALSE,1026.09,3.95303,0.18930,3.73260,NAN,NAN,12.50000
20590,0x000E,1,FALSE,1028.54,3.96216,0.18930,3.73240,NAN,NAN,12.70000
20640,0x000E,1,FALSE,1031.04,3.97148,0.18930,3.73230,NAN,NAN,12.90000
20690,0x000E,1,FALSE,1033.58,3.98099,0.18930,3.73220,NAN,NAN,12.80000
20740,0x000E,1,FALSE,1036.03,3.99012,0.18930,3.73200,NAN,NAN,12.30000
20790,0x000E,1,FALSE,1038.58,3.99962,0.18930,3.73170,NAN,NAN,12.20000
20840,0x000E,1,FALSE,1041.02,4.00875,0.18930,3.73140,NAN,NAN,12.30000
20890,0x000E,1,FALSE,1043.57,4.01825,0.18930,3.73120,NAN,NAN,12.40000
20940,0x000E,1,FALSE,1046.02,4.02738,0.18930,3.73100,NAN,NAN,12.40000
20990,0x000E,1,FALSE,1048.56,4.03689,0.18930,3.73070,NAN,NAN,12.20000
21040,0x000E,1,FALSE,1051.01,4.04601,0.18930,3.73040,NAN,NAN,12.40000
21090,0x000E,1,FALSE,1053.51,4.05533,0.18930,3.73020,NAN,NAN,12.60000
21140,0x000E,1,FALSE,1056.06,4.06483,0.18930,3.73010,NAN,NAN,12.80000
21190,0x000E,1,FALSE,1058.5,4.07396,0.18930,3.72990,NAN,NAN,12.90000
21240,0x000E,1,FALSE,1061.05,4.08346,0.18930,3.72980,NAN,NAN,12.60000
21290,0x000E,1,FALSE,1063.5,4.09259,0.18930,3.72950,NAN,NAN,12.10000
21340,0x000E,1,FALSE,1066.05,4.10209,0.18930,3.72930,NAN,NAN,12.30000
21390,0x000E,1,FALSE,1068.49,4.11121,0.18930,3.72900,NAN,NAN,12.40000
21440,0x000E,1,FALSE,1071.04,4.12071,0.18930,3.72870,NAN,NAN,12.50000
21490,0x000E,1,FALSE,1073.49,4.12983,0.18930,3.72850,NAN,NAN,12.30000
21540,0x000E,1,FALSE,1075.98,4.13914,0.18930,3.72820,NAN,NAN,12.30000
21590,0x000E,1,FALSE,1078.53,4.14864,0.18930,3.72790,NAN,NAN,12.50000
21640,0x000E,1,FALSE,1080.98,4.15776,0.18930,3.72770,NAN,NAN,12.70000
21690,0x000E,1,FALSE,1083.53,4.16726,0.18930,3.72750,NAN,NAN,12.90000
21740,0x000E,1,FALSE,1085.97,4.17638,0.18930,3.72740,NAN,NAN,12.90000
21790,0x000E,1,FALSE,1088.52,4.18587,0.18930,3.72710,NAN,NAN,12.40000
21840,0x000E,1,FALSE,1090.97,4.19499,0.18930,3.72680,NAN,NAN,12.20000
21890,0x000E,1,FALSE,1093.52,4.20449,0.18930,3.72650,NAN,NAN,12.40000
21940,0x000E,1,FALSE,1095.96,4.21360,0.18930,3.72620,NAN,NAN,12.40000
21990,0x000E,1,FALSE,1098.46,4.22291,0.18930,3.72600,NAN,NAN,12.50000
22040,0x000E,1,FALSE,1101.01,4.23240,0.18930,3.72560,NAN,NAN,12.20000
22090,0x000E,1,FALSE,1103.46,4.24152,0.18930,3.72530,NAN,NAN,12.40000
22140,0x000E,1,FALSE,1106,4.25101,0.18930,3.72500,NAN,NAN,12.70000
22190,0x000E,1,FALSE,1108.45,4.26013,0.18930,3.72480,NAN,NAN,12.80000
22240,0x000E,1,FALSE,1111,4.26962,0.18930,3.72450,NAN,NAN,13.00000
22290,0x000E,1,FALSE,1113.45,4.27873,0.18930,3.72440,NAN,NAN,12.70000
22340,0x000E,1,FALSE,1115.94,4.28803,0.18930,3.72400,NAN,NAN,12.20000
22390,0x000E,1,FALSE,1118.49,4.29752,0.18930,3.72370,NAN,NAN,12.30000
22440,0x000E,1,FALSE,1120.94,4.30663,0.18930,3.72330,NAN,NAN,12.50000
22490,0x000E,1,FALSE,1123.49,4.31612,0.18930,3.72300,NAN,NAN,12.50000
22540,0x000E,1,FALSE,1125.94,4.32523,0.18930,3.72270,NAN,NAN,12.40000
22590,0x000E,1,FALSE,1128.48,4.33471,0.18930,3.72220,NAN,NAN,12.30000
22640,0x000E,1,FALSE,1130.93,4.34382,0.18930,3.72190,NAN,NAN,12.60000
22690,0x000E,1,FALSE,1133.48,4.35330,0.18930,3.72160,NAN,NAN,12.80000
22740,0x000E,1,FALSE,1135.93,4.36241,0.18930,3.72130,NAN,NAN,12.90000
22790,0x000E,1,FALSE,1138.42,4.37170,0.18930,3.72100,NAN,NAN,13.00000
22840,0x000E,1,FALSE,1140.97,4.38118,0.18930,3.72070,NAN,NAN,12.50000
22890,0x000E,1,FALSE,1143.42,4.39029,0.18930,3.72030,NAN,NAN,12.30000
22940,0x000E,1,FALSE,1145.97,4.39976,0.18930,3.71990,NAN,NAN,12.40000
22990,0x000E,1,FALSE,1148.41,4.40886,0.18930,3.71940,NAN,NAN,12.50000
23040,0x000E,1,FALSE,1150.96,4.41833,0.18930,3.71900,NAN,NAN,12.60000
23090,0x000E,1,FALSE,1153.41,4.42743,0.18940,3.71860,NAN,NAN,12.30000
23140,0x000E,1,FALSE,1155.95,4.43690,0.18930,3.71810,NAN,NAN,12.40000
23190,0x000E,1,FALSE,1158.4,4.44600,0.18930,3.71770,NAN,NAN,12.70000
23240,0x000E,1,FALSE,1160.9,4.45528,0.18930,3.71720,NAN,NAN,12.90000
23290,0x000E,1,FALSE,1163.44,4.46475,0.18930,3.71690,NAN,NAN,13.00000
23340,0x000E,1,FALSE,1165.89,4.47384,0.18940,3.71650,NAN,NAN,12.80000
23390,0x000E,1,FALSE,1168.44,4.48330,0.18930,3.71610,NAN,NAN,12.30000
23440,0x000E,1,FALSE,1170.89,4.49240,0.18930,3.71550,NAN,NAN,12.40000
23490,0x000E,1,FALSE,1173.43,4.50186,0.18930,3.71500,NAN,NAN,12.50000
23540,0x000E,1,FALSE,1175.88,4.51095,0.18930,3.71450,NAN,NAN,12.60000
23590,0x000E,1,FALSE,1178.43,4.52041,0.18930,3.71400,NAN,NAN,12.50000
23640,0x000E,1,FALSE,1180.87,4.52949,0.18930,3.71350,NAN,NAN,12.40000
23690,0x000E,1,FALSE,1183.37,4.53876,0.18930,3.71290,NAN,NAN,12.60000
23740,0x000E,1,FALSE,1185.92,4.54822,0.18930,3.71240,NAN,NAN,12.90000
23790,0x000E,1,FALSE,1188.36,4.55730,0.18930,3.71200,NAN,NAN,13.00000
23840,0x000E,1,FALSE,1190.91,4.56676,0.18930,3.71150,NAN,NAN,13.10000
23890,0x000E,1,FALSE,1193.36,4.57584,0.18930,3.71100,NAN,NAN,12.60000
23940,0x000E,1,FALSE,1195.91,4.58529,0.18930,3.71040,NAN,NAN,12.30000
23990,0x000E,1,FALSE,1198.35,4.59437,0.18930,3.70980,NAN,NAN,12.50000
24040,0x000E,1,FALSE,1200.9,4.60382,0.18930,3.70920,NAN,NAN,12.60000
24090,0x000E,1,FALSE,1203.35,4.61289,0.18930,3.70860,NAN,NAN,12.60000
24140,0x000E,1,FALSE,1205.85,4.62215,0.18930,3.70800,NAN,NAN,12.40000
24190,0x000E,1,FALSE,1208.39,4.63160,0.18930,3.70730,NAN,NAN,12.50000
24240,0x000E,1,FALSE,1210.84,4.64067,0.18930,3.70670,NAN,NAN,12.70000
24290,0x000E,1,FALSE,1213.39,4.65011,0.18930,3.70610,NAN,NAN,12.90000
24340,0x000E,1,FALSE,1215.83,4.65917,0.18930,3.70560,NAN,NAN,13.00000
24390,0x000E,1,FALSE,1218.38,4.66861,0.18930,3.70500,NAN,NAN,12.90000
24440,0x000E,1,FALSE,1220.83,4.67767,0.18930,3.70440,NAN,NAN,12.40000
24490,0x000E,1,FALSE,1223.32,4.68692,0.18930,3.70370,NAN,NAN,12.40000
24540,0x000E,1,FALSE,1225.87,4.69634,0.18930,3.70300,NAN,NAN,12.50000
24590,0x000E,1,FALSE,1228.31,4.70540,0.18930,3.70230,NAN,NAN,12.60000
24640,0x000E,1,FALSE,1230.86,4.71483,0.18930,3.70160,NAN,NAN,12.60000
24690,0x000E,1,FALSE,1233.31,4.72389,0.18930,3.70080,NAN,NAN,12.40000
24740,0x000E,1,FALSE,1235.85,4.73331,0.18930,3.70000,NAN,NAN,12.60000
24790,0x000E,1,FALSE,1238.3,4.74236,0.18930,3.69930,NAN,NAN,12.80000
24840,0x000E,1,FALSE,1240.85,4.75178,0.18930,3.69860,NAN,NAN,13.00000
24890,0x000E,1,FALSE,1243.3,4.76083,0.18930,3.69790,NAN,NAN,13.10000
24940,0x000E,1,FALSE,1245.79,4.77006,0.18930,3.69710,NAN,NAN,12.70000
24990,0x000E,1,FALSE,1248.34,4.77947,0.18930,3.69620,NAN,NAN,12.30000
25040,0x000E,1,FALSE,1250.79,4.78852,0.18930,3.69540,NAN,NAN,12.50000
25090,0x000E,1,FALSE,1253.33,4.79793,0.18930,3.69450,NAN,NAN,12.60000
25140,0x000E,1,FALSE,1255.78,4.80697,0.18930,3.69360,NAN,NAN,12.70000
25190,0x000E,1,FALSE,1258.33,4.81637,0.18930,3.69260,NAN,NAN,12.50000
25240,0x000E,1,FALSE,1260.77,4.82540,0.18930,3.69150,NAN,NAN,12.50000
25290,0x000E,1,FALSE,1263.32,4.83480,0.18930,3.69060,NAN,NAN,12.70000
25340,0x000E,1,FALSE,1265.77,4.84383,0.18930,3.68960,NAN,NAN,12.90000
25390,0x000E,1,FALSE,1268.26,4.85304,0.18930,3.68860,NAN,NAN,13.00000
25440,0x000E,1,FALSE,1270.81,4.86243,0.18930,3.68760,NAN,NAN,13.00000
25490,0x000E,1,FALSE,1273.26,4.87146,0.18930,3.68660,NAN,NAN,12.50000
25540,0x000E,1,FALSE,1275.81,4.88085,0.18930,3.68540,NAN,NAN,12.40000
25590,0x000E,1,FALSE,1278.25,4.88986,0.18930,3.68430,NAN,NAN,12.60000
25640,0x000E,1,FALSE,1280.8,4.89925,0.18930,3.68320,NAN,NAN,12.60000
25690,0x000E,1,FALSE,1283.25,4.90826,0.18930,3.68210,NAN,NAN,12.70000
25740,0x000E,1,FALSE,1285.79,4.91763,0.18930,3.68090,NAN,NAN,12.40000
25790,0x000E,1,FALSE,1288.24,4.92664,0.18930,3.67980,NAN,NAN,12.60000
25840,0x000E,1,FALSE,1290.74,4.93583,0.18930,3.67870,NAN,NAN,12.80000
25890,0x000E,1,FALSE,1293.29,4.94519,0.18930,3.67760,NAN,NAN,13.00000
25940,0x000E,1,FALSE,1295.73,4.95419,0.18930,3.67660,NAN,NAN,13.10000
25990,0x000E,1,FALSE,1298.28,4.96356,0.18930,3.67550,NAN,NAN,12.80000
26040,0x000E,1,FALSE,1300.73,4.97255,0.18930,3.67440,NAN,NAN,12.30000
26090,0x000E,1,FALSE,1303.28,4.98190,0.18930,3.67320,NAN,NAN,12.50000
26140,0x000E,1,FALSE,1305.72,4.99089,0.18930,3.67200,NAN,NAN,12.60000
26190,0x000E,1,FALSE,1308.27,5.00024,0.18930,3.67070,NAN,NAN,12.70000
26240,0x000E,1,FALSE,1310.72,5.00922,0.18930,3.66940,NAN,NAN,12.50000
26290,0x000E,1,FALSE,1313.21,5.01838,0.18930,3.66810,NAN,NAN,12.50000
26340,0x000E,1,FALSE,1315.76,5.02772,0.18930,3.66660,NAN,NAN,12.70000
26390,0x000E,1,FALSE,1318.21,5.03669,0.18930,3.66530,NAN,NAN,12.90000
26440,0x000E,1,FALSE,1320.75,5.04602,0.18930,3.66390,NAN,NAN,13.10000
26490,0x000E,1,FALSE,1323.2,5.05498,0.18930,3.66250,NAN,NAN,13.00000
26540,0x000E,1,FALSE,1325.75,5.06431,0.18930,3.66100,NAN,NAN,12.50000
26590,0x000E,1,FALSE,1328.19,5.07326,0.18930,3.65940,NAN,NAN,12.40000
26640,0x000E,1,FALSE,1330.69,5.08240,0.18930,3.65790,NAN,NAN,12.60000
26690,0x000E,1,FALSE,1333.24,5.09171,0.18930,3.65630,NAN,NAN,12.60000
26740,0x000E,1,FALSE,1335.68,5.10065,0.18930,3.65480,NAN,NAN,12.70000
26790,0x000E,1,FALSE,1338.23,5.10996,0.18930,3.65340,NAN,NAN,12.40000
26840,0x000E,1,FALSE,1340.68,5.11890,0.18930,3.65200,NAN,NAN,12.60000
26890,0x000E,1,FALSE,1343.22,5.12819,0.18930,3.65080,NAN,NAN,12.80000
26940,0x000E,1,FALSE,1345.67,5.13712,0.18930,3.64990,NAN,NAN,13.00000
26990,0x000E,1,FALSE,1348.22,5.14642,0.18930,3.64910,NAN,NAN,13.10000
27040,0x000E,1,FALSE,1350.67,5.15535,0.18930,3.64840,NAN,NAN,12.80000
27090,0x000E,1,FALSE,1353.16,5.16446,0.18930,3.64780,NAN,NAN,12.30000
27140,0x000E,1,FALSE,1355.71,5.17375,0.18930,3.64710,NAN,NAN,12.50000
27190,0x000E,1,FALSE,1358.16,5.18267,0.18930,3.64660,NAN,NAN,12.60000
27240,0x000E,1,FALSE,1360.7,5.19196,0.18930,3.64600,NAN,NAN,12.70000
27290,0x000E,1,FALSE,1363.15,5.20088,0.18930,3.64550,NAN,NAN,12.50000
27340,0x000E,1,FALSE,1365.7,5.21016,0.18930,3.64500,NAN,NAN,12.50000
27390,0x000E,1,FALSE,1368.15,5.21908,0.18930,3.64450,NAN,NAN,12.70000
27440,0x000E,1,FALSE,1370.69,5.22836,0.18930,3.64410,NAN,NAN,12.90000
27490,0x000E,1,FALSE,1373.14,5.23728,0.18930,3.64380,NAN,NAN,13.10000
27540,0x000E,1,FALSE,1375.64,5.24638,0.18930,3.64340,NAN,NAN,13.10000
27590,0x000E,1,FALSE,1378.18,5.25565,0.18930,3.64300,NAN,NAN,12.60000
27640,0x000E,1,FALSE,1380.63,5.26457,0.18930,3.64250,NAN,NAN,12.40000
27690,0x000E,1,FALSE,1383.18,5.27384,0.18930,3.64200,NAN,NAN,12.60000
27740,0x000E,1,FALSE,1385.62,5.28276,0.18930,3.64160,NAN,NAN,12.60000
27790,0x000E,1,FALSE,1388.17,5.29203,0.18930,3.64110,NAN,NAN,12.70000
27840,0x000E,1,FALSE,1390.62,5.30094,0.18930,3.64060,NAN,NAN,12.40000
27890,0x000E,1,FALSE,1393.17,5.31021,0.18930,3.64010,NAN,NAN,12.60000
27940,0x000E,1,FALSE,1395.61,5.31912,0.18930,3.63960,NAN,NAN,12.80000
27990,0x000E,1,FALSE,1398.11,5.32820,0.18930,3.63920,NAN,NAN,13.00000
28040,0x000E,1,FALSE,1400.66,5.33747,0.18930,3.63880,NAN,NAN,13.10000
28090,0x000E,1,FALSE,1403.1,5.34637,0.18930,3.63840,NAN,NAN,12.90000
28140,0x000E,1,FALSE,1405.65,5.35564,0.18930,3.63790,NAN,NAN,12.30000
28190,0x000E,1,FALSE,1408.1,5.36453,0.18930,3.63730,NAN,NAN,12.50000
28240,0x000E,1,FALSE,1410.64,5.37380,0.18930,3.63670,NAN,NAN,12.60000
28290,0x000E,1,FALSE,1413.09,5.38269,0.18930,3.63620,NAN,NAN,12.70000
28340,0x000E,1,FALSE,1415.64,5.39195,0.18930,3.63560,NAN,NAN,12.50000
28390,0x000E,1,FALSE,1418.08,5.40085,0.18930,3.63490,NAN,NAN,12.50000
28440,0x000E,1,FALSE,1420.58,5.40992,0.18930,3.63430,NAN,NAN,12.70000
28490,0x000E,1,FALSE,1423.13,5.41917,0.18930,3.63370,NAN,NAN,12.90000
28540,0x000E,1,FALSE,1425.57,5.42806,0.18930,3.63320,NAN,NAN,13.10000
28590,0x000E,1,FALSE,1428.12,5.43731,0.18930,3.63270,NAN,NAN,13.10000
28640,0x000E,1,FALSE,1430.57,5.44620,0.18930,3.63210,NAN,NAN,12.60000
28690,0x000E,1,FALSE,1433.11,5.45545,0.18930,3.63130,NAN,NAN,12.40000
28740,0x000E,1,FALSE,1435.56,5.46433,0.18930,3.63060,NAN,NAN,12.50000
28790,0x000E,1,FALSE,1438.11,5.47358,0.18930,3.62980,NAN,NAN,12.70000
28840,0x000E,1,FALSE,1440.6,5.48264,0.18930,3.62900,NAN,NAN,12.70000
28890,0x000E,1,FALSE,1443.05,5.49152,0.18930,3.62820,NAN,NAN,12.40000
28940,0x000E,1,FALSE,1445.6,5.50076,0.18930,3.62730,NAN,NAN,12.50000
28990,0x000E,1,FALSE,1448.05,5.50963,0.18930,3.62650,NAN,NAN,12.80000
29040,0x000E,1,FALSE,1450.59,5.51887,0.18930,3.62570,NAN,NAN,13.00000
29090,0x000E,1,FALSE,1453.04,5.52774,0.18930,3.62490,NAN,NAN,13.10000
29140,0x000E,1,FALSE,1455.59,5.53697,0.18930,3.62410,NAN,NAN,12.90000
29190,0x000E,1,FALSE,1458.03,5.54584,0.18930,3.62310,NAN,NAN,12.30000
29240,0x000E,1,FALSE,1460.53,5.55488,0.18930,3.62210,NAN,NAN,12.40000
29290,0x000E,1,FALSE,1463.08,5.56411,0.18930,3.62100,NAN,NAN,12.60000
29340,0x000E,1,FALSE,1465.53,5.57296,0.18930,3.61980,NAN,NAN,12.60000
29390,0x000E,1,FALSE,1468.07,5.58218,0.18930,3.61870,NAN,NAN,12.50000
29440,0x000E,1,FALSE,1470.52,5.59103,0.18930,3.61730,NAN,NAN,12.50000
29490,0x000E,1,FALSE,1473.07,5.60025,0.18930,3.61610,NAN,NAN,12.70000
29540,0x000E,1,FALSE,1475.51,5.60909,0.18930,3.61480,NAN,NAN,12.90000
29590,0x000E,1,FALSE,1478.06,5.61830,0.18930,3.61350,NAN,NAN,13.10000
29640,0x000E,1,FALSE,1480.51,5.62714,0.18930,3.61220,NAN,NAN,13.10000
29690,0x000E,1,FALSE,1483.01,5.63616,0.18930,3.61070,NAN,NAN,12.60000
29740,0x000E,1,FALSE,1485.55,5.64535,0.18930,3.60880,NAN,NAN,12.40000
29790,0x000E,1,FALSE,1488,5.65418,0.18930,3.60690,NAN,NAN,12.60000
29840,0x000E,1,FALSE,1490.55,5.66336,0.18930,3.60490,NAN,NAN,12.70000
29890,0x000E,1,FALSE,1492.99,5.67218,0.18930,3.60270,NAN,NAN,12.70000
29940,0x000E,1,FALSE,1495.54,5.68135,0.18930,3.60020,NAN,NAN,12.50000
29990,0x000E,1,FALSE,1497.99,5.69016,0.18930,3.59750,NAN,NAN,12.60000
30040,0x000E,1,FALSE,1500.54,5.69932,0.18930,3.59460,NAN,NAN,12.80000
30090,0x000E,1,FALSE,1502.98,5.70811,0.18930,3.59160,NAN,NAN,13.00000
30140,0x000E,1,FALSE,1505.48,5.71708,0.18930,3.58820,NAN,NAN,13.20000
30190,0x000E,1,FALSE,1508.03,5.72621,0.18930,3.58440,NAN,NAN,12.90000
30240,0x000E,1,FALSE,1510.47,5.73498,0.18930,3.58000,NAN,NAN,12.40000
30290,0x000E,1,FALSE,1513.02,5.74409,0.18930,3.57490,NAN,NAN,12.60000
30340,0x000E,1,FALSE,1515.47,5.75283,0.18930,3.56940,NAN,NAN,12.70000
30390,0x000E,1,FALSE,1518.02,5.76192,0.18930,3.56330,NAN,NAN,12.70000
30440,0x000E,1,FALSE,1520.46,5.77063,0.18930,3.55660,NAN,NAN,12.60000
30490,0x000E,1,FALSE,1523.01,5.77968,0.18930,3.54910,NAN,NAN,12.60000
30540,0x000E,1,FALSE,1525.46,5.78835,0.18930,3.54110,NAN,NAN,12.80000
30590,0x000E,1,FALSE,1527.96,5.79719,0.18930,3.53260,NAN,NAN,13.00000
30640,0x000E,1,FALSE,1530.5,5.80617,0.18930,3.52350,NAN,NAN,13.20000
30690,0x000E,1,FALSE,1532.95,5.81478,0.18930,3.51410,NAN,NAN,13.20000
30740,0x000E,1,FALSE,1535.5,5.82372,0.18930,3.50370,NAN,NAN,12.70000
30790,0x000E,1,FALSE,1537.94,5.83227,0.18930,3.49260,NAN,NAN,12.50000
30840,0x000E,1,FALSE,1540.49,5.84115,0.18930,3.48060,NAN,NAN,12.70000
30890,0x000E,1,FALSE,1542.94,5.84966,0.18930,3.46830,NAN,NAN,12.80000
30940,0x000E,1,FALSE,1545.49,5.85848,0.18930,3.45510,NAN,NAN,12.90000
30990,0x000E,1,FALSE,1547.93,5.86692,0.18930,3.44120,NAN,NAN,12.60000
31040,0x000E,1,FALSE,1550.43,5.87549,0.18930,3.42630,NAN,NAN,12.80000
31090,0x000E,1,FALSE,1552.98,5.88420,0.18930,3.41060,NAN,NAN,13.00000
31140,0x000E,1,FALSE,1555.43,5.89252,0.18930,3.39450,NAN,NAN,13.20000
31190,0x000E,1,FALSE,1557.97,5.90115,0.18930,3.37730,NAN,NAN,13.30000
31240,0x000E,1,FALSE,1560.42,5.90939,0.18930,3.35920,NAN,NAN,13.00000
31290,0x000E,1,FALSE,1562.97,5.91792,0.18930,3.33910,NAN,NAN,12.50000
31340,0x000E,1,FALSE,1565.42,5.92607,0.18930,3.31790,NAN,NAN,12.70000
31390,0x000E,1,FALSE,1567.91,5.93433,0.18930,3.29510,NAN,NAN,12.90000
31440,0x000E,1,FALSE,1570.46,5.94269,0.18930,3.27040,NAN,NAN,12.90000
31490,0x000E,1,FALSE,1572.91,5.95066,0.18930,3.24400,NAN,NAN,12.80000
31540,0x000E,1,FALSE,1575.45,5.95888,0.18930,3.21420,NAN,NAN,12.70000
31590,0x000E,1,FALSE,1577.9,5.96671,0.18930,3.18200,NAN,NAN,12.90000
31640,0x000E,1,FALSE,1580.45,5.97477,0.18930,3.14540,NAN,NAN,13.10000
31690,0x000E,1,FALSE,1582.9,5.98242,0.18930,3.10300,NAN,NAN,13.30000
31740,0x000E,1,FALSE,1585.44,5.99025,0.18930,3.04690,NAN,NAN,13.40000
31790,0x000E,1,FALSE,1587.89,5.99762,0.18930,2.97020,NAN,NAN,12.90000
31840,0x000E,1,FALSE,1590.39,6.00491,0.18930,2.85930,NAN,NAN,12.70000
31876,0x000E,1,FALSE,1592.19,4.72222,0.18950,2.75000,NAN,NAN,12.90000

[DISCHARGE RESULT]
LoRange,FALSE
FinishedBy,1(Cut Voltage)
OpenVolt[V],4.06740
OpenCurr[A],0.00010
OpenTemp[°C],12.70000
StartVolt[V],4.06650
StartCurr[A],0.18920
StartTemp[°C],12.70000
CutoffVolt[V],2.75000
CutoffCurr[A],0.18950
CutoffTemp[°C],12.90000
TimeElapsed[s],31876
Power[Wh],4.72222
StartPulseA[V],NAN
CurrPulseA[V],NAN
StartPulseB[V],NAN
CurrPulseB[V],NAN
TempSet[°C],OFF
TempMon[°C],OFF
HumidSet[%],OFF
HumidMon[%],OFF

[LIFE]
CycleNo,2
Action,Discharge
Start,2021/03/08,3:35:23
End,2021/03/08,12:26:43
Capacity[mAh],1232.86

[IMPEDANCE],AfterCharge,AfterRest
Range,0,0
AutoRange,FALSE,FALSE
Resistance[ohm],NAN,NAN
Reactance[ohm],NAN,NAN