File: csvFiles/20210227/temp25.CSV
[TEST CONDITION]
CondName,バッテリ温度特性試験20210227
ModelID,21
Average,0
CheckDut,FALSE
AutoFine,FALSE
DateTime,2021/02/27,21:40:39
Operator,米山まうむ
Notes,運用に向けてバッテリの温度特性を測定する
運用時の消費電流を鑑み，0.1C放電で行う
なおこんなに運用直前にやることではないので，次期プロジェクトの人間はもっと早い段階で行うことをお勧めする
BatteryName,UF103450P
NominalCapacity[mAh],1800.0
NominalVoltage[V],3.70000
Volume[ml],0.10
Weight[g],38.30
SoftOvp[V],4.40000
SoftUvp[V],2.50000
SoftOah[%],110
SoftOtp[°C],60.00000
DeltaT[s],10.00000
DeltaV[V],0.10000
DeltaI[A],0.10000
ImpRange[ohm],0
Frequency[Hz],1000
AutoRange,FALSE
AfterCharge,FALSE
AfterChargeRest,FALSE
AfterDischarge,FALSE
AfterDischargeRest,FALSE
CapacityRate_C[%],OFF
CapacityRate_D[%],OFF
Impedance_C[ohm],OFF
Impedance_D[ohm],OFF
SeqInfoName,

[CHARGE SHEET]
SheetNo,2
Range,HIGH
Mode,CC-CV
ChargeTime[s],0
RestTime[s],0
Current[A],0.00000
CvVolt[V],0.00000
CvTime[s],0
ItCurrent[A],OFF
ItTime[s],OFF

[DISCHARGE SHEET]
SheetNo,2
Range,HIGH
Mode,CC
DischargeTime[s],43200
RestTime[s],0
Current[A],0.18800
CapacityVolt[V],3.70000
CutoffVolt[V],2.75000

[DISCHARGE MONITOR]
TimeElapsed[s],StdState,OpnState,LowRange,Capacity[mAh],Power[Wh],Curr[A],Volt[V],VoltHi[V],VoltLo[V],Temp[°C],TermState,CellVolt[V],CellVoltHi[V],CellVoltLo[V],CellTemp[°C],(continued)
0,0x000E,0,FALSE,0.00000,0.00000,0.00000,4.09850,NAN,NAN,25.20000
40,0x000E,1,FALSE,2.02581,0.00826,0.18930,4.07390,NAN,NAN,25.20000
90,0x000E,1,FALSE,4.67606,0.01905,0.18930,4.07030,NAN,NAN,25.20000
140,0x000E,1,FALSE,7.22272,0.02941,0.18930,4.06800,NAN,NAN,25.20000
190,0x000E,1,FALSE,9.87261,0.04019,0.18930,4.06610,NAN,NAN,25.20000
240,0x000E,1,FALSE,12.41914,0.05054,0.18930,4.06450,NAN,NAN,25.30000
290,0x000E,1,FALSE,15.06983,0.06131,0.18930,4.06290,NAN,NAN,25.20000
340,0x000E,1,FALSE,17.61611,0.07165,0.18930,4.06140,NAN,NAN,25.20000
390,0x000E,1,FALSE,20.21347,0.08220,0.18930,4.05990,NAN,NAN,25.20000
440,0x000E,1,FALSE,22.86289,0.09295,0.18930,4.05850,NAN,NAN,25.30000
490,0x000E,1,FALSE,25.40820,0.10328,0.18930,4.05720,NAN,NAN,25.30000
540,0x000E,1,FALSE,28.05728,0.11403,0.18930,4.05580,NAN,NAN,25.30000
590,0x000E,1,FALSE,30.60217,0.12434,0.18930,4.05450,NAN,NAN,25.30000
640,0x000E,1,FALSE,33.25197,0.13509,0.18930,4.05310,NAN,NAN,25.30000
690,0x000E,1,FALSE,35.79828,0.14540,0.18930,4.05180,NAN,NAN,25.30000
740,0x000E,1,FALSE,38.44844,0.15614,0.18930,4.05050,NAN,NAN,25.30000
790,0x000E,1,FALSE,40.99425,0.16645,0.18930,4.04930,NAN,NAN,25.30000
840,0x000E,1,FALSE,43.59119,0.17696,0.18930,4.04800,NAN,NAN,25.20000
890,0x000E,1,FALSE,46.24131,0.18769,0.18930,4.04670,NAN,NAN,25.30000
940,0x000E,1,FALSE,48.78711,0.19799,0.18930,4.04550,NAN,NAN,25.30000
990,0x000E,1,FALSE,51.43631,0.20870,0.18930,4.04420,NAN,NAN,25.30000
1040,0x000E,1,FALSE,53.98195,0.21899,0.18930,4.04300,NAN,NAN,25.30000
1090,0x000E,1,FALSE,56.63120,0.22970,0.18930,4.04170,NAN,NAN,25.30000
1140,0x000E,1,FALSE,59.17617,0.23999,0.18930,4.04050,NAN,NAN,25.30000
1190,0x000E,1,FALSE,61.82539,0.25069,0.18930,4.03930,NAN,NAN,25.30000
1240,0x000E,1,FALSE,64.37036,0.26097,0.18930,4.03810,NAN,NAN,25.30000
1290,0x000E,1,FALSE,66.96764,0.27145,0.18930,4.03690,NAN,NAN,25.30000
1340,0x000E,1,FALSE,69.61686,0.28214,0.18930,4.03570,NAN,NAN,25.30000
1390,0x000E,1,FALSE,72.16200,0.29241,0.18930,4.03450,NAN,NAN,25.30000
1440,0x000E,1,FALSE,74.81183,0.30310,0.18930,4.03330,NAN,NAN,25.30000
1490,0x000E,1,FALSE,77.35767,0.31337,0.18930,4.03210,NAN,NAN,25.30000
1540,0x000E,1,FALSE,80.00713,0.32405,0.18930,4.03090,NAN,NAN,25.30000
1590,0x000E,1,FALSE,82.55337,0.33431,0.18930,4.02980,NAN,NAN,25.30000
1640,0x000E,1,FALSE,85.15075,0.34477,0.18930,4.02860,NAN,NAN,25.30000
1690,0x000E,1,FALSE,87.80017,0.35545,0.18930,4.02740,NAN,NAN,25.30000
1740,0x000E,1,FALSE,90.34589,0.36570,0.18930,4.02630,NAN,NAN,25.30000
1790,0x000E,1,FALSE,92.99539,0.37636,0.18930,4.02510,NAN,NAN,25.30000
1840,0x000E,1,FALSE,95.54061,0.38660,0.18930,4.02400,NAN,NAN,25.30000
1890,0x000E,1,FALSE,98.18961,0.39726,0.18930,4.02280,NAN,NAN,25.30000
1940,0x000E,1,FALSE,100.735,0.40750,0.18930,4.02170,NAN,NAN,25.30000
1990,0x000E,1,FALSE,103.385,0.41815,0.18930,4.02060,NAN,NAN,25.30000
2040,0x000E,1,FALSE,105.931,0.42839,0.18930,4.01940,NAN,NAN,25.30000
2090,0x000E,1,FALSE,108.529,0.43883,0.18930,4.01830,NAN,NAN,25.30000
2140,0x000E,1,FALSE,111.178,0.44947,0.18930,4.01720,NAN,NAN,25.30000
2190,0x000E,1,FALSE,113.724,0.45970,0.18930,4.01600,NAN,NAN,25.30000
2240,0x000E,1,FALSE,116.373,0.47033,0.18930,4.01490,NAN,NAN,25.30000
2290,0x000E,1,FALSE,118.918,0.48055,0.18930,4.01380,NAN,NAN,25.30000
2340,0x000E,1,FALSE,121.567,0.49118,0.18930,4.01270,NAN,NAN,25.30000
2390,0x000E,1,FALSE,124.111,0.50139,0.18930,4.01150,NAN,NAN,25.30000
2440,0x000E,1,FALSE,126.76,0.51201,0.18930,4.01040,NAN,NAN,25.30000
2490,0x000E,1,FALSE,129.305,0.52221,0.18930,4.00930,NAN,NAN,25.30000
2540,0x000E,1,FALSE,131.902,0.53263,0.18930,4.00820,NAN,NAN,25.30000
2590,0x000E,1,FALSE,134.552,0.54324,0.18930,4.00710,NAN,NAN,25.30000
2640,0x000E,1,FALSE,137.098,0.55344,0.18930,4.00600,NAN,NAN,25.30000
2690,0x000E,1,FALSE,139.747,0.56405,0.18930,4.00490,NAN,NAN,25.30000
2740,0x000E,1,FALSE,142.293,0.57425,0.18930,4.00380,NAN,NAN,25.30000
2790,0x000E,1,FALSE,144.943,0.58486,0.18930,4.00260,NAN,NAN,25.30000
2840,0x000E,1,FALSE,147.488,0.59504,0.18930,4.00160,NAN,NAN,25.30000
2890,0x000E,1,FALSE,150.138,0.60564,0.18930,4.00040,NAN,NAN,25.30000
2940,0x000E,1,FALSE,152.684,0.61582,0.18930,3.99940,NAN,NAN,25.30000
2990,0x000E,1,FALSE,155.282,0.62621,0.18930,3.99830,NAN,NAN,25.30000
3040,0x000E,1,FALSE,157.932,0.63681,0.18930,3.99720,NAN,NAN,25.30000
3090,0x000E,1,FALSE,160.477,0.64698,0.18930,3.99610,NAN,NAN,25.30000
3140,0x000E,1,FALSE,163.127,0.65756,0.18930,3.99500,NAN,NAN,25.30000
3190,0x000E,1,FALSE,165.672,0.66773,0.18930,3.99400,NAN,NAN,25.30000
3240,0x000E,1,FALSE,168.321,0.67831,0.18930,3.99290,NAN,NAN,25.30000
3290,0x000E,1,FALSE,170.866,0.68847,0.18930,3.99180,NAN,NAN,25.30000
3340,0x000E,1,FALSE,173.515,0.69904,0.18930,3.99070,NAN,NAN,25.30000
3390,0x000E,1,FALSE,176.061,0.70920,0.18930,3.98970,NAN,NAN,25.30000
3440,0x000E,1,FALSE,178.658,0.71956,0.18930,3.98860,NAN,NAN,25.30000
3490,0x000E,1,FALSE,181.306,0.73012,0.18930,3.98750,NAN,NAN,25.30000
3540,0x000E,1,FALSE,183.851,0.74026,0.18930,3.98650,NAN,NAN,25.30000
3590,0x000E,1,FALSE,186.5,0.75082,0.18930,3.98540,NAN,NAN,25.30000
3640,0x000E,1,FALSE,189.045,0.76096,0.18930,3.98440,NAN,NAN,25.30000
3690,0x000E,1,FALSE,191.694,0.77152,0.18930,3.98340,NAN,NAN,25.30000
3740,0x000E,1,FALSE,194.24,0.78165,0.18930,3.98240,NAN,NAN,25.30000
3790,0x000E,1,FALSE,196.889,0.79220,0.18930,3.98130,NAN,NAN,25.30000
3840,0x000E,1,FALSE,199.487,0.80254,0.18930,3.98020,NAN,NAN,25.30000
3890,0x000E,1,FALSE,202.033,0.81267,0.18930,3.97920,NAN,NAN,25.30000
3940,0x000E,1,FALSE,204.682,0.82321,0.18930,3.97820,NAN,NAN,25.30000
3990,0x000E,1,FALSE,207.228,0.83334,0.18930,3.97720,NAN,NAN,25.30000
4040,0x000E,1,FALSE,209.877,0.84387,0.18930,3.97620,NAN,NAN,25.30000
4090,0x000E,1,FALSE,212.422,0.85399,0.18930,3.97520,NAN,NAN,25.30000
4140,0x000E,1,FALSE,215.071,0.86452,0.18930,3.97410,NAN,NAN,25.30000
4190,0x000E,1,FALSE,217.617,0.87464,0.18930,3.97310,NAN,NAN,25.30000
4240,0x000E,1,FALSE,220.215,0.88496,0.18930,3.97220,NAN,NAN,25.30000
4290,0x000E,1,FALSE,222.866,0.89548,0.18930,3.97120,NAN,NAN,25.30000
4340,0x000E,1,FALSE,225.413,0.90559,0.18930,3.97020,NAN,NAN,25.30000
4390,0x000E,1,FALSE,228.063,0.91612,0.18930,3.96920,NAN,NAN,25.30000
4440,0x000E,1,FALSE,230.609,0.92622,0.18930,3.96820,NAN,NAN,25.30000
4490,0x000E,1,FALSE,233.259,0.93673,0.18930,3.96720,NAN,NAN,25.30000
4540,0x000E,1,FALSE,235.806,0.94683,0.18930,3.96630,NAN,NAN,25.30000
4590,0x000E,1,FALSE,238.456,0.95734,0.18930,3.96530,NAN,NAN,25.30000
4640,0x000E,1,FALSE,241.002,0.96744,0.18930,3.96430,NAN,NAN,25.30000
4690,0x000E,1,FALSE,243.599,0.97773,0.18930,3.96330,NAN,NAN,25.30000
4740,0x000E,1,FALSE,246.249,0.98823,0.18930,3.96230,NAN,NAN,25.30000
4790,0x000E,1,FALSE,248.793,0.99831,0.18930,3.96140,NAN,NAN,25.30000
4840,0x000E,1,FALSE,251.442,1.00880,0.18930,3.96040,NAN,NAN,25.30000
4890,0x000E,1,FALSE,253.987,1.01888,0.18930,3.95950,NAN,NAN,25.30000
4940,0x000E,1,FALSE,256.636,1.02937,0.18930,3.95850,NAN,NAN,25.30000
4990,0x000E,1,FALSE,259.182,1.03944,0.18930,3.95760,NAN,NAN,25.30000
5040,0x000E,1,FALSE,261.832,1.04993,0.18930,3.95660,NAN,NAN,25.30000
5090,0x000E,1,FALSE,264.378,1.06000,0.18930,3.95570,NAN,NAN,25.30000
5140,0x000E,1,FALSE,266.976,1.07027,0.18930,3.95470,NAN,NAN,25.30000
5190,0x000E,1,FALSE,269.627,1.08075,0.18930,3.95380,NAN,NAN,25.30000
5240,0x000E,1,FALSE,272.173,1.09082,0.18930,3.95280,NAN,NAN,25.30000
5290,0x000E,1,FALSE,274.824,1.10130,0.18930,3.95190,NAN,NAN,25.30000
5340,0x000E,1,FALSE,277.37,1.11136,0.18930,3.95090,NAN,NAN,25.30000
5390,0x000E,1,FALSE,280.02,1.12182,0.18930,3.95000,NAN,NAN,25.30000
5440,0x000E,1,FALSE,282.566,1.13188,0.18930,3.94910,NAN,NAN,25.30000
5490,0x000E,1,FALSE,285.215,1.14234,0.18930,3.94810,NAN,NAN,25.30000
5540,0x000E,1,FALSE,287.761,1.15239,0.18930,3.94720,NAN,NAN,25.30000
5590,0x000E,1,FALSE,290.358,1.16264,0.18930,3.94630,NAN,NAN,25.30000
5640,0x000E,1,FALSE,293.006,1.17308,0.18930,3.94540,NAN,NAN,25.30000
5690,0x000E,1,FALSE,295.55,1.18312,0.18930,3.94450,NAN,NAN,25.30000
5740,0x000E,1,FALSE,298.199,1.19357,0.18930,3.94350,NAN,NAN,25.30000
5790,0x000E,1,FALSE,300.744,1.20360,0.18930,3.94260,NAN,NAN,25.30000
5840,0x000E,1,FALSE,303.393,1.21404,0.18930,3.94170,NAN,NAN,25.30000
5890,0x000E,1,FALSE,305.938,1.22407,0.18930,3.94080,NAN,NAN,25.30000
5940,0x000E,1,FALSE,308.587,1.23451,0.18930,3.93980,NAN,NAN,25.30000
5990,0x000E,1,FALSE,311.133,1.24454,0.18930,3.93900,NAN,NAN,25.30000
6040,0x000E,1,FALSE,313.731,1.25477,0.18930,3.93800,NAN,NAN,25.30000
6090,0x000E,1,FALSE,316.379,1.26520,0.18930,3.93720,NAN,NAN,25.30000
6140,0x000E,1,FALSE,318.924,1.27521,0.18930,3.93630,NAN,NAN,25.30000
6190,0x000E,1,FALSE,321.572,1.28564,0.18930,3.93530,NAN,NAN,25.30000
6240,0x000E,1,FALSE,324.117,1.29565,0.18930,3.93450,NAN,NAN,25.30000
6290,0x000E,1,FALSE,326.766,1.30607,0.18930,3.93350,NAN,NAN,25.30000
6340,0x000E,1,FALSE,329.311,1.31608,0.18930,3.93260,NAN,NAN,25.30000
6390,0x000E,1,FALSE,331.909,1.32629,0.18930,3.93170,NAN,NAN,25.30000
6440,0x000E,1,FALSE,334.557,1.33670,0.18930,3.93080,NAN,NAN,25.30000
6490,0x000E,1,FALSE,337.101,1.34670,0.18930,3.93000,NAN,NAN,25.30000
6540,0x000E,1,FALSE,339.75,1.35711,0.18930,3.92900,NAN,NAN,25.30000
6590,0x000E,1,FALSE,342.295,1.36711,0.18930,3.92820,NAN,NAN,25.30000
6640,0x000E,1,FALSE,344.943,1.37751,0.18930,3.92730,NAN,NAN,25.30000
6690,0x000E,1,FALSE,347.488,1.38750,0.18930,3.92640,NAN,NAN,25.30000
6740,0x000E,1,FALSE,350.136,1.39790,0.18930,3.92550,NAN,NAN,25.30000
6790,0x000E,1,FALSE,352.68,1.40788,0.18930,3.92460,NAN,NAN,25.30000
6840,0x000E,1,FALSE,355.276,1.41807,0.18930,3.92380,NAN,NAN,25.30000
6890,0x000E,1,FALSE,357.923,1.42845,0.18930,3.92290,NAN,NAN,25.30000
6940,0x000E,1,FALSE,360.468,1.43843,0.18930,3.92200,NAN,NAN,25.30000
6990,0x000E,1,FALSE,363.116,1.44882,0.18930,3.92110,NAN,NAN,25.30000
7040,0x000E,1,FALSE,365.661,1.45880,0.18930,3.92020,NAN,NAN,25.30000
7090,0x000E,1,FALSE,368.31,1.46918,0.18930,3.91940,NAN,NAN,25.30000
7140,0x000E,1,FALSE,370.854,1.47915,0.18930,3.91850,NAN,NAN,25.30000
7190,0x000E,1,FALSE,373.502,1.48952,0.18930,3.91760,NAN,NAN,25.30000
7240,0x000E,1,FALSE,376.046,1.49948,0.18930,3.91680,NAN,NAN,25.30000
7290,0x000E,1,FALSE,378.641,1.50965,0.18930,3.91590,NAN,NAN,25.30000
7340,0x000E,1,FALSE,381.29,1.52002,0.18930,3.91500,NAN,NAN,25.30000
7390,0x000E,1,FALSE,383.835,1.52998,0.18930,3.91420,NAN,NAN,25.30000
7440,0x000E,1,FALSE,386.483,1.54034,0.18930,3.91330,NAN,NAN,25.30000
7490,0x000E,1,FALSE,389.027,1.55030,0.18930,3.91240,NAN,NAN,25.30000
7540,0x000E,1,FALSE,391.676,1.56066,0.18930,3.91160,NAN,NAN,25.30000
7590,0x000E,1,FALSE,394.22,1.57061,0.18930,3.91070,NAN,NAN,25.30000
7640,0x000E,1,FALSE,396.869,1.58097,0.18930,3.90980,NAN,NAN,25.30000
7690,0x000E,1,FALSE,399.414,1.59092,0.18930,3.90900,NAN,NAN,25.30000
7740,0x000E,1,FALSE,402.012,1.60107,0.18930,3.90810,NAN,NAN,25.30000
7790,0x000E,1,FALSE,404.661,1.61142,0.18930,3.90730,NAN,NAN,25.30000
7840,0x000E,1,FALSE,407.206,1.62136,0.18930,3.90640,NAN,NAN,25.30000
7890,0x000E,1,FALSE,409.856,1.63171,0.18930,3.90560,NAN,NAN,25.30000
7940,0x000E,1,FALSE,412.402,1.64165,0.18930,3.90470,NAN,NAN,25.30000
7990,0x000E,1,FALSE,415.051,1.65200,0.18930,3.90390,NAN,NAN,25.30000
8040,0x000E,1,FALSE,417.596,1.66193,0.18930,3.90300,NAN,NAN,25.30000
8090,0x000E,1,FALSE,420.246,1.67227,0.18930,3.90210,NAN,NAN,25.30000
8140,0x000E,1,FALSE,422.791,1.68220,0.18930,3.90130,NAN,NAN,25.40000
8190,0x000E,1,FALSE,425.388,1.69233,0.18930,3.90040,NAN,NAN,25.30000
8240,0x000E,1,FALSE,428.039,1.70267,0.18930,3.89960,NAN,NAN,25.30000
8290,0x000E,1,FALSE,430.584,1.71259,0.18930,3.89870,NAN,NAN,25.30000
8340,0x000E,1,FALSE,433.232,1.72291,0.18930,3.89780,NAN,NAN,25.40000
8390,0x000E,1,FALSE,435.777,1.73283,0.18930,3.89700,NAN,NAN,25.30000
8440,0x000E,1,FALSE,438.426,1.74315,0.18930,3.89610,NAN,NAN,25.30000
8490,0x000E,1,FALSE,440.972,1.75307,0.18930,3.89530,NAN,NAN,25.30000
8540,0x000E,1,FALSE,443.568,1.76318,0.18930,3.89440,NAN,NAN,25.30000
8590,0x000E,1,FALSE,446.217,1.77349,0.18930,3.89350,NAN,NAN,25.30000
8640,0x000E,1,FALSE,448.762,1.78340,0.18930,3.89270,NAN,NAN,25.30000
8690,0x000E,1,FALSE,451.411,1.79371,0.18930,3.89180,NAN,NAN,25.30000
8740,0x000E,1,FALSE,453.956,1.80361,0.18930,3.89090,NAN,NAN,25.40000
8790,0x000E,1,FALSE,456.605,1.81392,0.18930,3.89010,NAN,NAN,25.40000
8840,0x000E,1,FALSE,459.15,1.82382,0.18930,3.88920,NAN,NAN,25.30000
8890,0x000E,1,FALSE,461.799,1.83412,0.18930,3.88830,NAN,NAN,25.30000
8940,0x000E,1,FALSE,464.343,1.84401,0.18930,3.88740,NAN,NAN,25.30000
8990,0x000E,1,FALSE,466.939,1.85410,0.18930,3.88660,NAN,NAN,25.40000
9040,0x000E,1,FALSE,469.588,1.86439,0.18930,3.88560,NAN,NAN,25.40000
9090,0x000E,1,FALSE,472.132,1.87428,0.18930,3.88480,NAN,NAN,25.30000
9140,0x000E,1,FALSE,474.781,1.88456,0.18930,3.88390,NAN,NAN,25.30000
9190,0x000E,1,FALSE,477.326,1.89445,0.18930,3.88300,NAN,NAN,25.40000
9240,0x000E,1,FALSE,479.975,1.90473,0.18930,3.88210,NAN,NAN,25.40000
9290,0x000E,1,FALSE,482.519,1.91460,0.18930,3.88120,NAN,NAN,25.40000
9340,0x000E,1,FALSE,485.167,1.92488,0.18930,3.88030,NAN,NAN,25.40000
9390,0x000E,1,FALSE,487.712,1.93475,0.18930,3.87930,NAN,NAN,25.40000
9440,0x000E,1,FALSE,490.309,1.94483,0.18930,3.87840,NAN,NAN,25.40000
9490,0x000E,1,FALSE,492.958,1.95510,0.18930,3.87740,NAN,NAN,25.40000
9540,0x000E,1,FALSE,495.503,1.96496,0.18930,3.87650,NAN,NAN,25.30000
9590,0x000E,1,FALSE,498.151,1.97523,0.18930,3.87550,NAN,NAN,25.40000
9640,0x000E,1,FALSE,500.696,1.98509,0.18930,3.87460,NAN,NAN,25.40000
9690,0x000E,1,FALSE,503.344,1.99535,0.18930,3.87360,NAN,NAN,25.40000
9740,0x000E,1,FALSE,505.887,2.00520,0.18930,3.87260,NAN,NAN,25.40000
9790,0x000E,1,FALSE,508.534,2.01545,0.18930,3.87160,NAN,NAN,25.40000
9840,0x000E,1,FALSE,511.078,2.02529,0.18930,3.87060,NAN,NAN,25.40000
9890,0x000E,1,FALSE,513.674,2.03534,0.18930,3.86960,NAN,NAN,25.40000
9940,0x000E,1,FALSE,516.322,2.04558,0.18930,3.86850,NAN,NAN,25.40000
9990,0x000E,1,FALSE,518.866,2.05542,0.18930,3.86750,NAN,NAN,25.40000
10040,0x000E,1,FALSE,521.515,2.06567,0.18930,3.86650,NAN,NAN,25.30000
10090,0x000E,1,FALSE,524.059,2.07550,0.18930,3.86540,NAN,NAN,25.40000
10140,0x000E,1,FALSE,526.707,2.08573,0.18930,3.86430,NAN,NAN,25.40000
10190,0x000E,1,FALSE,529.251,2.09556,0.18930,3.86320,NAN,NAN,25.40000
10240,0x000E,1,FALSE,531.901,2.10579,0.18930,3.86200,NAN,NAN,25.40000
10290,0x000E,1,FALSE,534.446,2.11562,0.18930,3.86090,NAN,NAN,25.40000
10340,0x000E,1,FALSE,537.042,2.12564,0.18930,3.85970,NAN,NAN,25.40000
10390,0x000E,1,FALSE,539.691,2.13587,0.18930,3.85850,NAN,NAN,25.40000
10440,0x000E,1,FALSE,542.235,2.14568,0.18930,3.85730,NAN,NAN,25.40000
10490,0x000E,1,FALSE,544.885,2.15590,0.18930,3.85610,NAN,NAN,25.40000
10540,0x000E,1,FALSE,547.429,2.16571,0.18930,3.85480,NAN,NAN,25.40000
10590,0x000E,1,FALSE,550.077,2.17591,0.18930,3.85350,NAN,NAN,25.30000
10640,0x000E,1,FALSE,552.62,2.18571,0.18930,3.85230,NAN,NAN,25.40000
10690,0x000E,1,FALSE,555.214,2.19570,0.18930,3.85100,NAN,NAN,25.40000
10740,0x000E,1,FALSE,557.862,2.20590,0.18930,3.84960,NAN,NAN,25.40000
10790,0x000E,1,FALSE,560.407,2.21569,0.18930,3.84830,NAN,NAN,25.40000
10840,0x000E,1,FALSE,563.054,2.22587,0.18930,3.84700,NAN,NAN,25.40000
10890,0x000E,1,FALSE,565.598,2.23566,0.18930,3.84550,NAN,NAN,25.40000
10940,0x000E,1,FALSE,568.246,2.24584,0.18930,3.84410,NAN,NAN,25.40000
10990,0x000E,1,FALSE,570.791,2.25562,0.18930,3.84280,NAN,NAN,25.40000
11040,0x000E,1,FALSE,573.439,2.26579,0.18930,3.84140,NAN,NAN,25.40000
11090,0x000E,1,FALSE,575.984,2.27556,0.18930,3.84000,NAN,NAN,25.40000
11140,0x000E,1,FALSE,578.58,2.28553,0.18930,3.83860,NAN,NAN,25.40000
11190,0x000E,1,FALSE,581.229,2.29570,0.18930,3.83720,NAN,NAN,25.40000
11240,0x000E,1,FALSE,583.774,2.30546,0.18930,3.83590,NAN,NAN,25.40000
11290,0x000E,1,FALSE,586.423,2.31562,0.18930,3.83450,NAN,NAN,25.30000
11340,0x000E,1,FALSE,588.968,2.32537,0.18930,3.83320,NAN,NAN,25.30000
11390,0x000E,1,FALSE,591.615,2.33552,0.18930,3.83190,NAN,NAN,25.40000
11440,0x000E,1,FALSE,594.159,2.34527,0.18930,3.83060,NAN,NAN,25.40000
11490,0x000E,1,FALSE,596.807,2.35541,0.18930,3.82930,NAN,NAN,25.30000
11540,0x000E,1,FALSE,599.35,2.36514,0.18930,3.82810,NAN,NAN,25.30000
11590,0x000E,1,FALSE,601.946,2.37508,0.18930,3.82700,NAN,NAN,25.40000
11640,0x000E,1,FALSE,604.593,2.38521,0.18930,3.82580,NAN,NAN,25.30000
11690,0x000E,1,FALSE,607.136,2.39493,0.18930,3.82470,NAN,NAN,25.30000
11740,0x000E,1,FALSE,609.784,2.40506,0.18930,3.82360,NAN,NAN,25.30000
11790,0x000E,1,FALSE,612.327,2.41478,0.18930,3.82260,NAN,NAN,25.30000
11840,0x000E,1,FALSE,614.974,2.42490,0.18930,3.82160,NAN,NAN,25.40000
11890,0x000E,1,FALSE,617.516,2.43461,0.18930,3.82060,NAN,NAN,25.30000
11940,0x000E,1,FALSE,620.163,2.44472,0.18930,3.81970,NAN,NAN,25.30000
11990,0x000E,1,FALSE,622.706,2.45443,0.18930,3.81880,NAN,NAN,25.30000
12040,0x000E,1,FALSE,625.3,2.46434,0.18930,3.81790,NAN,NAN,25.30000
12090,0x000E,1,FALSE,627.947,2.47444,0.18930,3.81700,NAN,NAN,25.30000
12140,0x000E,1,FALSE,630.489,2.48414,0.18930,3.81620,NAN,NAN,25.30000
12190,0x000E,1,FALSE,633.136,2.49424,0.18930,3.81540,NAN,NAN,25.30000
12240,0x000E,1,FALSE,635.68,2.50395,0.18930,3.81460,NAN,NAN,25.30000
12290,0x000E,1,FALSE,638.328,2.51404,0.18930,3.81380,NAN,NAN,25.30000
12340,0x000E,1,FALSE,640.872,2.52374,0.18930,3.81310,NAN,NAN,25.30000
12390,0x000E,1,FALSE,643.519,2.53384,0.18920,3.81230,NAN,NAN,25.30000
12440,0x000E,1,FALSE,646.063,2.54353,0.18930,3.81160,NAN,NAN,25.30000
12490,0x000E,1,FALSE,648.658,2.55342,0.18930,3.81090,NAN,NAN,25.30000
12540,0x000E,1,FALSE,651.306,2.56351,0.18930,3.81020,NAN,NAN,25.30000
12590,0x000E,1,FALSE,653.85,2.57320,0.18930,3.80950,NAN,NAN,25.30000
12640,0x000E,1,FALSE,656.497,2.58329,0.18930,3.80890,NAN,NAN,25.30000
12690,0x000E,1,FALSE,659.04,2.59297,0.18930,3.80820,NAN,NAN,25.30000
12740,0x000E,1,FALSE,661.687,2.60305,0.18930,3.80760,NAN,NAN,25.30000
12790,0x000E,1,FALSE,664.231,2.61273,0.18930,3.80700,NAN,NAN,25.30000
12840,0x000E,1,FALSE,666.878,2.62281,0.18930,3.80640,NAN,NAN,25.30000
12890,0x000E,1,FALSE,669.423,2.63250,0.18930,3.80580,NAN,NAN,25.30000
12940,0x000E,1,FALSE,672.019,2.64238,0.18930,3.80510,NAN,NAN,25.30000
12990,0x000E,1,FALSE,674.667,2.65245,0.18930,3.80450,NAN,NAN,25.30000
13040,0x000E,1,FALSE,677.211,2.66212,0.18930,3.80390,NAN,NAN,25.30000
13090,0x000E,1,FALSE,679.858,2.67219,0.18930,3.80340,NAN,NAN,25.30000
13140,0x000E,1,FALSE,682.401,2.68186,0.18930,3.80280,NAN,NAN,25.30000
13190,0x000E,1,FALSE,685.048,2.69193,0.18930,3.80220,NAN,NAN,25.30000
13240,0x000E,1,FALSE,687.591,2.70160,0.18930,3.80160,NAN,NAN,25.30000
13290,0x000E,1,FALSE,690.186,2.71146,0.18930,3.80110,NAN,NAN,25.30000
13340,0x000E,1,FALSE,692.833,2.72152,0.18930,3.80050,NAN,NAN,25.30000
13390,0x000E,1,FALSE,695.376,2.73118,0.18930,3.80000,NAN,NAN,25.30000
13440,0x000E,1,FALSE,698.023,2.74124,0.18930,3.79940,NAN,NAN,25.30000
13490,0x000E,1,FALSE,700.566,2.75090,0.18930,3.79890,NAN,NAN,25.30000
13540,0x000E,1,FALSE,703.213,2.76096,0.18930,3.79830,NAN,NAN,25.30000
13590,0x000E,1,FALSE,705.756,2.77061,0.18930,3.79780,NAN,NAN,25.30000
13640,0x000E,1,FALSE,708.403,2.78066,0.18930,3.79720,NAN,NAN,25.30000
13690,0x000E,1,FALSE,710.946,2.79032,0.18930,3.79670,NAN,NAN,25.30000
13740,0x000E,1,FALSE,713.54,2.80017,0.18930,3.79620,NAN,NAN,25.30000
13790,0x000E,1,FALSE,716.186,2.81021,0.18930,3.79570,NAN,NAN,25.30000
13840,0x000E,1,FALSE,718.729,2.81986,0.18930,3.79510,NAN,NAN,25.30000
13890,0x000E,1,FALSE,721.377,2.82991,0.18930,3.79460,NAN,NAN,25.30000
13940,0x000E,1,FALSE,723.92,2.83956,0.18930,3.79410,NAN,NAN,25.30000
13990,0x000E,1,FALSE,726.567,2.84960,0.18930,3.79360,NAN,NAN,25.30000
14040,0x000E,1,FALSE,729.11,2.85925,0.18930,3.79310,NAN,NAN,25.30000
14090,0x000E,1,FALSE,731.757,2.86928,0.18930,3.79260,NAN,NAN,25.30000
14140,0x000E,1,FALSE,734.3,2.87893,0.18920,3.79210,NAN,NAN,25.30000
14190,0x000E,1,FALSE,736.896,2.88877,0.18930,3.79160,NAN,NAN,25.30000
14240,0x000E,1,FALSE,739.542,2.89880,0.18930,3.79110,NAN,NAN,25.30000
14290,0x000E,1,FALSE,742.085,2.90844,0.18930,3.79060,NAN,NAN,25.30000
14340,0x000E,1,FALSE,744.732,2.91847,0.18930,3.79010,NAN,NAN,25.30000
14390,0x000E,1,FALSE,747.276,2.92811,0.18930,3.78970,NAN,NAN,25.30000
14440,0x000E,1,FALSE,749.924,2.93815,0.18930,3.78920,NAN,NAN,25.30000
14490,0x000E,1,FALSE,752.467,2.94778,0.18930,3.78870,NAN,NAN,25.30000
14540,0x000E,1,FALSE,755.114,2.95781,0.18930,3.78820,NAN,NAN,25.30000
14590,0x000E,1,FALSE,757.659,2.96745,0.18930,3.78770,NAN,NAN,25.30000
14640,0x000E,1,FALSE,760.255,2.97728,0.18930,3.78730,NAN,NAN,25.30000
14690,0x000E,1,FALSE,762.903,2.98731,0.18930,3.78680,NAN,NAN,25.30000
14740,0x000E,1,FALSE,765.447,2.99694,0.18930,3.78630,NAN,NAN,25.30000
14790,0x000E,1,FALSE,768.095,3.00697,0.18930,3.78590,NAN,NAN,25.30000
14840,0x000E,1,FALSE,770.64,3.01660,0.18930,3.78540,NAN,NAN,25.30000
14890,0x000E,1,FALSE,773.287,3.02662,0.18930,3.78490,NAN,NAN,25.30000
14940,0x000E,1,FALSE,775.831,3.03625,0.18930,3.78450,NAN,NAN,25.30000
14990,0x000E,1,FALSE,778.479,3.04626,0.18930,3.78400,NAN,NAN,25.30000
15040,0x000E,1,FALSE,781.022,3.05589,0.18930,3.78360,NAN,NAN,25.30000
15090,0x000E,1,FALSE,783.616,3.06570,0.18930,3.78310,NAN,NAN,25.30000
15140,0x000E,1,FALSE,786.263,3.07571,0.18930,3.78270,NAN,NAN,25.30000
15190,0x000E,1,FALSE,788.805,3.08533,0.18930,3.78230,NAN,NAN,25.30000
15240,0x000E,1,FALSE,791.452,3.09534,0.18930,3.78180,NAN,NAN,25.30000
15290,0x000E,1,FALSE,793.995,3.10495,0.18920,3.78140,NAN,NAN,25.30000
15340,0x000E,1,FALSE,796.642,3.11496,0.18930,3.78090,NAN,NAN,25.30000
15390,0x000E,1,FALSE,799.186,3.12458,0.18930,3.78050,NAN,NAN,25.30000
15440,0x000E,1,FALSE,801.781,3.13439,0.18930,3.78000,NAN,NAN,25.30000
15490,0x000E,1,FALSE,804.427,3.14439,0.18930,3.77960,NAN,NAN,25.30000
15540,0x000E,1,FALSE,806.972,3.15400,0.18930,3.77920,NAN,NAN,25.30000
15590,0x000E,1,FALSE,809.619,3.16401,0.18930,3.77870,NAN,NAN,25.30000
15640,0x000E,1,FALSE,812.163,3.17362,0.18930,3.77830,NAN,NAN,25.30000
15690,0x000E,1,FALSE,814.809,3.18362,0.18930,3.77790,NAN,NAN,25.30000
15740,0x000E,1,FALSE,817.352,3.19322,0.18930,3.77750,NAN,NAN,25.30000
15790,0x000E,1,FALSE,819.999,3.20322,0.18930,3.77700,NAN,NAN,25.30000
15840,0x000E,1,FALSE,822.542,3.21282,0.18930,3.77660,NAN,NAN,25.30000
15890,0x000E,1,FALSE,825.137,3.22262,0.18930,3.77620,NAN,NAN,25.30000
15940,0x000E,1,FALSE,827.784,3.23262,0.18930,3.77580,NAN,NAN,25.30000
15990,0x000E,1,FALSE,830.327,3.24222,0.18930,3.77540,NAN,NAN,25.30000
16040,0x000E,1,FALSE,832.974,3.25221,0.18930,3.77500,NAN,NAN,25.30000
16090,0x000E,1,FALSE,835.517,3.26181,0.18930,3.77460,NAN,NAN,25.30000
16140,0x000E,1,FALSE,838.164,3.27180,0.18930,3.77410,NAN,NAN,25.30000
16190,0x000E,1,FALSE,840.707,3.28140,0.18930,3.77380,NAN,NAN,25.30000
16240,0x000E,1,FALSE,843.354,3.29138,0.18930,3.77340,NAN,NAN,25.30000
16290,0x000E,1,FALSE,845.897,3.30098,0.18930,3.77300,NAN,NAN,25.30000
16340,0x000E,1,FALSE,848.492,3.31077,0.18930,3.77260,NAN,NAN,25.30000
16390,0x000E,1,FALSE,851.14,3.32076,0.18930,3.77220,NAN,NAN,25.30000
16440,0x000E,1,FALSE,853.683,3.33035,0.18930,3.77180,NAN,NAN,25.30000
16490,0x000E,1,FALSE,856.329,3.34033,0.18930,3.77140,NAN,NAN,25.30000
16540,0x000E,1,FALSE,858.872,3.34992,0.18930,3.77100,NAN,NAN,25.30000
16590,0x000E,1,FALSE,861.519,3.35990,0.18930,3.77060,NAN,NAN,25.30000
16640,0x000E,1,FALSE,864.062,3.36948,0.18930,3.77020,NAN,NAN,25.30000
16690,0x000E,1,FALSE,866.708,3.37946,0.18930,3.76990,NAN,NAN,25.30000
16740,0x000E,1,FALSE,869.25,3.38904,0.18920,3.76950,NAN,NAN,25.30000
16790,0x000E,1,FALSE,871.845,3.39882,0.18930,3.76910,NAN,NAN,25.30000
16840,0x000E,1,FALSE,874.493,3.40880,0.18930,3.76880,NAN,NAN,25.30000
16890,0x000E,1,FALSE,877.037,3.41839,0.18930,3.76840,NAN,NAN,25.30000
16940,0x000E,1,FALSE,879.685,3.42836,0.18930,3.76800,NAN,NAN,25.30000
16990,0x000E,1,FALSE,882.228,3.43795,0.18930,3.76760,NAN,NAN,25.30000
17040,0x000E,1,FALSE,884.876,3.44792,0.18930,3.76730,NAN,NAN,25.40000
17090,0x000E,1,FALSE,887.419,3.45750,0.18930,3.76690,NAN,NAN,25.30000
17140,0x000E,1,FALSE,890.066,3.46747,0.18930,3.76660,NAN,NAN,25.30000
17190,0x000E,1,FALSE,892.609,3.47705,0.18930,3.76620,NAN,NAN,25.30000
17240,0x000E,1,FALSE,895.203,3.48682,0.18930,3.76580,NAN,NAN,25.40000
17290,0x000E,1,FALSE,897.85,3.49678,0.18930,3.76550,NAN,NAN,25.30000
17340,0x000E,1,FALSE,900.394,3.50636,0.18930,3.76510,NAN,NAN,25.30000
17390,0x000E,1,FALSE,903.042,3.51633,0.18930,3.76480,NAN,NAN,25.30000
17440,0x000E,1,FALSE,905.586,3.52591,0.18930,3.76440,NAN,NAN,25.30000
17490,0x000E,1,FALSE,908.235,3.53588,0.18930,3.76410,NAN,NAN,25.30000
17540,0x000E,1,FALSE,910.779,3.54545,0.18930,3.76370,NAN,NAN,25.30000
17590,0x000E,1,FALSE,913.375,3.55522,0.18930,3.76340,NAN,NAN,25.30000
17640,0x000E,1,FALSE,916.023,3.56519,0.18930,3.76300,NAN,NAN,25.30000
17690,0x000E,1,FALSE,918.567,3.57476,0.18930,3.76270,NAN,NAN,25.30000
17740,0x000E,1,FALSE,921.216,3.58472,0.18930,3.76240,NAN,NAN,25.30000
17790,0x000E,1,FALSE,923.759,3.59429,0.18930,3.76200,NAN,NAN,25.30000
17840,0x000E,1,FALSE,926.406,3.60425,0.18930,3.76170,NAN,NAN,25.30000
17890,0x000E,1,FALSE,928.95,3.61382,0.18930,3.76140,NAN,NAN,25.30000
17940,0x000E,1,FALSE,931.597,3.62377,0.18930,3.76100,NAN,NAN,25.40000
17990,0x000E,1,FALSE,934.14,3.63333,0.18930,3.76070,NAN,NAN,25.30000
18040,0x000E,1,FALSE,936.735,3.64309,0.18930,3.76040,NAN,NAN,25.30000
18090,0x000E,1,FALSE,939.381,3.65304,0.18930,3.76010,NAN,NAN,25.30000
18140,0x000E,1,FALSE,941.924,3.66260,0.18930,3.75980,NAN,NAN,25.30000
18190,0x000E,1,FALSE,944.571,3.67255,0.18920,3.75940,NAN,NAN,25.40000
18240,0x000E,1,FALSE,947.114,3.68211,0.18930,3.75910,NAN,NAN,25.40000
18290,0x000E,1,FALSE,949.761,3.69206,0.18930,3.75880,NAN,NAN,25.40000
18340,0x000E,1,FALSE,952.305,3.70162,0.18930,3.75850,NAN,NAN,25.30000
18390,0x000E,1,FALSE,954.952,3.71157,0.18930,3.75810,NAN,NAN,25.30000
18440,0x000E,1,FALSE,957.494,3.72112,0.18930,3.75780,NAN,NAN,25.40000
18490,0x000E,1,FALSE,960.088,3.73087,0.18930,3.75760,NAN,NAN,25.30000
18540,0x000E,1,FALSE,962.734,3.74081,0.18930,3.75720,NAN,NAN,25.30000
18590,0x000E,1,FALSE,965.277,3.75036,0.18930,3.75690,NAN,NAN,25.30000
18640,0x000E,1,FALSE,967.924,3.76031,0.18930,3.75660,NAN,NAN,25.30000
18690,0x000E,1,FALSE,970.466,3.76986,0.18930,3.75630,NAN,NAN,25.30000
18740,0x000E,1,FALSE,973.113,3.77979,0.18930,3.75600,NAN,NAN,25.30000
18790,0x000E,1,FALSE,975.655,3.78934,0.18930,3.75570,NAN,NAN,25.30000
18840,0x000E,1,FALSE,978.301,3.79928,0.18920,3.75540,NAN,NAN,25.30000
18890,0x000E,1,FALSE,980.843,3.80883,0.18930,3.75510,NAN,NAN,25.30000
18940,0x000E,1,FALSE,983.438,3.81857,0.18920,3.75490,NAN,NAN,25.30000
18990,0x000E,1,FALSE,986.085,3.82850,0.18920,3.75460,NAN,NAN,25.30000
19040,0x000E,1,FALSE,988.627,3.83805,0.18930,3.75430,NAN,NAN,25.30000
19090,0x000E,1,FALSE,991.274,3.84798,0.18930,3.75400,NAN,NAN,25.40000
19140,0x000E,1,FALSE,993.817,3.85753,0.18930,3.75370,NAN,NAN,25.30000
19190,0x000E,1,FALSE,996.463,3.86746,0.18920,3.75350,NAN,NAN,25.30000
19240,0x000E,1,FALSE,999.006,3.87701,0.18920,3.75320,NAN,NAN,25.30000
19290,0x000E,1,FALSE,1001.65,3.88694,0.18920,3.75290,NAN,NAN,25.30000
19340,0x000E,1,FALSE,1004.19,3.89648,0.18920,3.75260,NAN,NAN,25.30000
19390,0x000E,1,FALSE,1006.79,3.90621,0.18930,3.75230,NAN,NAN,25.40000
19440,0x000E,1,FALSE,1009.43,3.91613,0.18920,3.75210,NAN,NAN,25.30000
19490,0x000E,1,FALSE,1011.97,3.92567,0.18930,3.75180,NAN,NAN,25.30000
19540,0x000E,1,FALSE,1014.62,3.93559,0.18930,3.75150,NAN,NAN,25.30000
19590,0x000E,1,FALSE,1017.16,3.94513,0.18930,3.75130,NAN,NAN,25.40000
19640,0x000E,1,FALSE,1019.81,3.95505,0.18930,3.75100,NAN,NAN,25.40000
19690,0x000E,1,FALSE,1022.35,3.96459,0.18930,3.75070,NAN,NAN,25.40000
19740,0x000E,1,FALSE,1024.94,3.97432,0.18930,3.75050,NAN,NAN,25.40000
19790,0x000E,1,FALSE,1027.59,3.98424,0.18930,3.75020,NAN,NAN,25.30000
19840,0x000E,1,FALSE,1030.13,3.99378,0.18930,3.74990,NAN,NAN,25.40000
19890,0x000E,1,FALSE,1032.78,4.00370,0.18930,3.74970,NAN,NAN,25.40000
19940,0x000E,1,FALSE,1035.32,4.01324,0.18930,3.74940,NAN,NAN,25.40000
19990,0x000E,1,FALSE,1037.97,4.02316,0.18930,3.74920,NAN,NAN,25.30000
20040,0x000E,1,FALSE,1040.51,4.03269,0.18930,3.74890,NAN,NAN,25.40000
20090,0x000E,1,FALSE,1043.16,4.04261,0.18930,3.74870,NAN,NAN,25.40000
20140,0x000E,1,FALSE,1045.7,4.05213,0.18930,3.74840,NAN,NAN,25.40000
20190,0x000E,1,FALSE,1048.3,4.06186,0.18930,3.74820,NAN,NAN,25.40000
20240,0x000E,1,FALSE,1050.94,4.07178,0.18930,3.74790,NAN,NAN,25.40000
20290,0x000E,1,FALSE,1053.48,4.08130,0.18930,3.74770,NAN,NAN,25.40000
20340,0x000E,1,FALSE,1056.13,4.09122,0.18930,3.74740,NAN,NAN,25.40000
20390,0x000E,1,FALSE,1058.67,4.10075,0.18930,3.74720,NAN,NAN,25.40000
20440,0x000E,1,FALSE,1061.32,4.11066,0.18930,3.74690,NAN,NAN,25.40000
20490,0x000E,1,FALSE,1063.86,4.12018,0.18930,3.74670,NAN,NAN,25.40000
20540,0x000E,1,FALSE,1066.51,4.13010,0.18930,3.74650,NAN,NAN,25.40000
20590,0x000E,1,FALSE,1069.05,4.13962,0.18930,3.74630,NAN,NAN,25.40000
20640,0x000E,1,FALSE,1071.64,4.14934,0.18930,3.74600,NAN,NAN,25.40000
20690,0x000E,1,FALSE,1074.29,4.15925,0.18930,3.74580,NAN,NAN,25.40000
20740,0x000E,1,FALSE,1076.83,4.16878,0.18930,3.74550,NAN,NAN,25.40000
20790,0x000E,1,FALSE,1079.48,4.17869,0.18930,3.74530,NAN,NAN,25.40000
20840,0x000E,1,FALSE,1082.02,4.18821,0.18930,3.74510,NAN,NAN,25.40000
20890,0x000E,1,FALSE,1084.67,4.19812,0.18930,3.74480,NAN,NAN,25.40000
20940,0x000E,1,FALSE,1087.21,4.20764,0.18930,3.74460,NAN,NAN,25.40000
20990,0x000E,1,FALSE,1089.86,4.21754,0.18930,3.74440,NAN,NAN,25.40000
21040,0x000E,1,FALSE,1092.4,4.22706,0.18920,3.74410,NAN,NAN,25.40000
21090,0x000E,1,FALSE,1094.99,4.23677,0.18920,3.74390,NAN,NAN,25.40000
21140,0x000E,1,FALSE,1097.64,4.24667,0.18930,3.74370,NAN,NAN,25.40000
21190,0x000E,1,FALSE,1100.18,4.25619,0.18930,3.74340,NAN,NAN,25.40000
21240,0x000E,1,FALSE,1102.83,4.26610,0.18930,3.74320,NAN,NAN,25.40000
21290,0x000E,1,FALSE,1105.37,4.27562,0.18930,3.74290,NAN,NAN,25.40000
21340,0x000E,1,FALSE,1108.02,4.28552,0.18920,3.74270,NAN,NAN,25.40000
21390,0x000E,1,FALSE,1110.56,4.29504,0.18920,3.74250,NAN,NAN,25.40000
21440,0x000E,1,FALSE,1113.21,4.30494,0.18920,3.74230,NAN,NAN,25.40000
21490,0x000E,1,FALSE,1115.75,4.31445,0.18920,3.74200,NAN,NAN,25.40000
21540,0x000E,1,FALSE,1118.34,4.32416,0.18920,3.74180,NAN,NAN,25.40000
21590,0x000E,1,FALSE,1120.99,4.33406,0.18920,3.74160,NAN,NAN,25.40000
21640,0x000E,1,FALSE,1123.53,4.34357,0.18920,3.74130,NAN,NAN,25.40000
21690,0x000E,1,FALSE,1126.17,4.35346,0.18920,3.74110,NAN,NAN,25.40000
21740,0x000E,1,FALSE,1128.71,4.36297,0.18920,3.74090,NAN,NAN,25.40000
21790,0x000E,1,FALSE,1131.36,4.37286,0.18920,3.74060,NAN,NAN,25.50000
21840,0x000E,1,FALSE,1133.9,4.38237,0.18920,3.74040,NAN,NAN,25.40000
21890,0x000E,1,FALSE,1136.55,4.39226,0.18920,3.74010,NAN,NAN,25.40000
21940,0x000E,1,FALSE,1139.09,4.40176,0.18920,3.73990,NAN,NAN,25.40000
21990,0x000E,1,FALSE,1141.68,4.41146,0.18920,3.73970,NAN,NAN,25.50000
22040,0x000E,1,FALSE,1144.33,4.42135,0.18920,3.73940,NAN,NAN,25.50000
22090,0x000E,1,FALSE,1146.87,4.43085,0.18920,3.73910,NAN,NAN,25.40000
22140,0x000E,1,FALSE,1149.51,4.44074,0.18920,3.73890,NAN,NAN,25.40000
22190,0x000E,1,FALSE,1152.05,4.45024,0.18920,3.73860,NAN,NAN,25.40000
22240,0x000E,1,FALSE,1154.7,4.46013,0.18920,3.73840,NAN,NAN,25.40000
22290,0x000E,1,FALSE,1157.24,4.46963,0.18920,3.73810,NAN,NAN,25.50000
22340,0x000E,1,FALSE,1159.83,4.47932,0.18920,3.73780,NAN,NAN,25.50000
22390,0x000E,1,FALSE,1162.48,4.48920,0.18920,3.73760,NAN,NAN,25.40000
22440,0x000E,1,FALSE,1165.02,4.49870,0.18930,3.73730,NAN,NAN,25.50000
22490,0x000E,1,FALSE,1167.67,4.50859,0.18920,3.73700,NAN,NAN,25.50000
22540,0x000E,1,FALSE,1170.21,4.51809,0.18930,3.73670,NAN,NAN,25.50000
22590,0x000E,1,FALSE,1172.85,4.52798,0.18930,3.73640,NAN,NAN,25.50000
22640,0x000E,1,FALSE,1175.4,4.53748,0.18930,3.73610,NAN,NAN,25.50000
22690,0x000E,1,FALSE,1178.04,4.54736,0.18930,3.73590,NAN,NAN,25.50000
22740,0x000E,1,FALSE,1180.58,4.55686,0.18920,3.73550,NAN,NAN,25.50000
22790,0x000E,1,FALSE,1183.18,4.56655,0.18920,3.73520,NAN,NAN,25.50000
22840,0x000E,1,FALSE,1185.82,4.57643,0.18930,3.73490,NAN,NAN,25.50000
22890,0x000E,1,FALSE,1188.37,4.58592,0.18920,3.73460,NAN,NAN,25.50000
22940,0x000E,1,FALSE,1191.01,4.59580,0.18920,3.73420,NAN,NAN,25.50000
22990,0x000E,1,FALSE,1193.56,4.60530,0.18920,3.73390,NAN,NAN,25.50000
23040,0x000E,1,FALSE,1196.2,4.61518,0.18930,3.73360,NAN,NAN,25.50000
23090,0x000E,1,FALSE,1198.74,4.62467,0.18920,3.73320,NAN,NAN,25.50000
23140,0x000E,1,FALSE,1201.39,4.63455,0.18930,3.73290,NAN,NAN,25.50000
23190,0x000E,1,FALSE,1203.93,4.64404,0.18920,3.73260,NAN,NAN,25.50000
23240,0x000E,1,FALSE,1206.53,4.65372,0.18930,3.73220,NAN,NAN,25.50000
23290,0x000E,1,FALSE,1209.18,4.66360,0.18930,3.73180,NAN,NAN,25.50000
23340,0x000E,1,FALSE,1211.72,4.67309,0.18920,3.73140,NAN,NAN,25.50000
23390,0x000E,1,FALSE,1214.37,4.68296,0.18920,3.73100,NAN,NAN,25.60000
23440,0x000E,1,FALSE,1216.91,4.69245,0.18920,3.73060,NAN,NAN,25.60000
23490,0x000E,1,FALSE,1219.55,4.70232,0.18930,3.73020,NAN,NAN,25.50000
23540,0x000E,1,FALSE,1222.1,4.71180,0.18930,3.72980,NAN,NAN,25.50000
23590,0x000E,1,FALSE,1224.74,4.72167,0.18920,3.72930,NAN,NAN,25.60000
23640,0x000E,1,FALSE,1227.29,4.73115,0.18920,3.72890,NAN,NAN,25.50000
23690,0x000E,1,FALSE,1229.88,4.74083,0.18920,3.72840,NAN,NAN,25.60000
23740,0x000E,1,FALSE,1232.53,4.75069,0.18930,3.72800,NAN,NAN,25.50000
23790,0x000E,1,FALSE,1235.07,4.76017,0.18930,3.72750,NAN,NAN,25.50000
23840,0x000E,1,FALSE,1237.72,4.77003,0.18920,3.72700,NAN,NAN,25.50000
23890,0x000E,1,FALSE,1240.26,4.77951,0.18930,3.72650,NAN,NAN,25.60000
23940,0x000E,1,FALSE,1242.9,4.78937,0.18930,3.72600,NAN,NAN,25.60000
23990,0x000E,1,FALSE,1245.45,4.79884,0.18930,3.72550,NAN,NAN,25.50000
24040,0x000E,1,FALSE,1248.09,4.80869,0.18930,3.72500,NAN,NAN,25.50000
24090,0x000E,1,FALSE,1250.63,4.81816,0.18930,3.72440,NAN,NAN,25.60000
24140,0x000E,1,FALSE,1253.23,4.82782,0.18930,3.72390,NAN,NAN,25.60000
24190,0x000E,1,FALSE,1255.87,4.83767,0.18930,3.72330,NAN,NAN,25.60000
24240,0x000E,1,FALSE,1258.42,4.84713,0.18930,3.72270,NAN,NAN,25.60000
24290,0x000E,1,FALSE,1261.06,4.85697,0.18930,3.72210,NAN,NAN,25.60000
24340,0x000E,1,FALSE,1263.6,4.86643,0.18920,3.72160,NAN,NAN,25.60000
24390,0x000E,1,FALSE,1266.25,4.87628,0.18920,3.72100,NAN,NAN,25.60000
24440,0x000E,1,FALSE,1268.79,4.88574,0.18930,3.72040,NAN,NAN,25.60000
24490,0x000E,1,FALSE,1271.38,4.89538,0.18920,3.71980,NAN,NAN,25.60000
24540,0x000E,1,FALSE,1274.03,4.90522,0.18920,3.71920,NAN,NAN,25.60000
24590,0x000E,1,FALSE,1276.57,4.91467,0.18920,3.71870,NAN,NAN,25.60000
24640,0x000E,1,FALSE,1279.21,4.92451,0.18920,3.71810,NAN,NAN,25.60000
24690,0x000E,1,FALSE,1281.76,4.93395,0.18920,3.71750,NAN,NAN,25.60000
24740,0x000E,1,FALSE,1284.4,4.94379,0.18920,3.71690,NAN,NAN,25.60000
24790,0x000E,1,FALSE,1286.94,4.95323,0.18920,3.71640,NAN,NAN,25.60000
24840,0x000E,1,FALSE,1289.59,4.96306,0.18920,3.71580,NAN,NAN,25.60000
24890,0x000E,1,FALSE,1292.13,4.97250,0.18920,3.71530,NAN,NAN,25.60000
24940,0x000E,1,FALSE,1294.72,4.98214,0.18920,3.71470,NAN,NAN,25.60000
24990,0x000E,1,FALSE,1297.37,4.99197,0.18920,3.71420,NAN,NAN,25.60000
25040,0x000E,1,FALSE,1299.91,5.00140,0.18920,3.71360,NAN,NAN,25.60000
25090,0x000E,1,FALSE,1302.56,5.01123,0.18920,3.71300,NAN,NAN,25.60000
25140,0x000E,1,FALSE,1305.1,5.02066,0.18920,3.71240,NAN,NAN,25.60000
25190,0x000E,1,FALSE,1307.74,5.03048,0.18930,3.71190,NAN,NAN,25.60000
25240,0x000E,1,FALSE,1310.28,5.03991,0.18920,3.71130,NAN,NAN,25.60000
25290,0x000E,1,FALSE,1312.93,5.04973,0.18920,3.71060,NAN,NAN,25.60000
25340,0x000E,1,FALSE,1315.47,5.05916,0.18920,3.71000,NAN,NAN,25.60000
25390,0x000E,1,FALSE,1318.07,5.06878,0.18920,3.70930,NAN,NAN,25.60000
25440,0x000E,1,FALSE,1320.71,5.07859,0.18920,3.70870,NAN,NAN,25.60000
25490,0x000E,1,FALSE,1323.25,5.08802,0.18920,3.70790,NAN,NAN,25.60000
25540,0x000E,1,FALSE,1325.9,5.09783,0.18920,3.70720,NAN,NAN,25.60000
25590,0x000E,1,FALSE,1328.44,5.10725,0.18920,3.70640,NAN,NAN,25.60000
25640,0x000E,1,FALSE,1331.09,5.11706,0.18930,3.70560,NAN,NAN,25.60000
25690,0x000E,1,FALSE,1333.63,5.12648,0.18920,3.70470,NAN,NAN,25.60000
25740,0x000E,1,FALSE,1336.28,5.13628,0.18920,3.70380,NAN,NAN,25.60000
25790,0x000E,1,FALSE,1338.82,5.14569,0.18920,3.70290,NAN,NAN,25.60000
25840,0x000E,1,FALSE,1341.41,5.15530,0.18930,3.70190,NAN,NAN,25.60000
25890,0x000E,1,FALSE,1344.06,5.16509,0.18920,3.70090,NAN,NAN,25.60000
25940,0x000E,1,FALSE,1346.6,5.17450,0.18920,3.69980,NAN,NAN,25.60000
25990,0x000E,1,FALSE,1349.25,5.18429,0.18920,3.69870,NAN,NAN,25.60000
26040,0x000E,1,FALSE,1351.79,5.19369,0.18920,3.69760,NAN,NAN,25.60000
26090,0x000E,1,FALSE,1354.44,5.20347,0.18920,3.69640,NAN,NAN,25.60000
26140,0x000E,1,FALSE,1356.98,5.21287,0.18920,3.69510,NAN,NAN,25.60000
26190,0x000E,1,FALSE,1359.63,5.22265,0.18930,3.69390,NAN,NAN,25.60000
26240,0x000E,1,FALSE,1362.17,5.23204,0.18930,3.69270,NAN,NAN,25.60000
26290,0x000E,1,FALSE,1364.76,5.24162,0.18930,3.69150,NAN,NAN,25.60000
26340,0x000E,1,FALSE,1367.41,5.25139,0.18930,3.69040,NAN,NAN,25.60000
26390,0x000E,1,FALSE,1369.95,5.26077,0.18930,3.68920,NAN,NAN,25.60000
26440,0x000E,1,FALSE,1372.6,5.27053,0.18930,3.68820,NAN,NAN,25.60000
26490,0x000E,1,FALSE,1375.14,5.27991,0.18930,3.68710,NAN,NAN,25.60000
26540,0x000E,1,FALSE,1377.79,5.28967,0.18930,3.68610,NAN,NAN,25.60000
26590,0x000E,1,FALSE,1380.34,5.29904,0.18930,3.68510,NAN,NAN,25.60000
26640,0x000E,1,FALSE,1382.93,5.30861,0.18920,3.68410,NAN,NAN,25.60000
26690,0x000E,1,FALSE,1385.58,5.31836,0.18920,3.68300,NAN,NAN,25.60000
26740,0x000E,1,FALSE,1388.12,5.32773,0.18930,3.68190,NAN,NAN,25.60000
26790,0x000E,1,FALSE,1390.77,5.33747,0.18920,3.68080,NAN,NAN,25.60000
26840,0x000E,1,FALSE,1393.31,5.34683,0.18920,3.67960,NAN,NAN,25.60000
26890,0x000E,1,FALSE,1395.96,5.35657,0.18930,3.67830,NAN,NAN,25.60000
26940,0x000E,1,FALSE,1398.51,5.36593,0.18920,3.67690,NAN,NAN,25.60000
26990,0x000E,1,FALSE,1401.15,5.37566,0.18930,3.67540,NAN,NAN,25.60000
27040,0x000E,1,FALSE,1403.7,5.38501,0.18920,3.67390,NAN,NAN,25.60000
27090,0x000E,1,FALSE,1406.29,5.39454,0.18920,3.67230,NAN,NAN,25.60000
27140,0x000E,1,FALSE,1408.94,5.40427,0.18930,3.67070,NAN,NAN,25.60000
27190,0x000E,1,FALSE,1411.49,5.41361,0.18930,3.66900,NAN,NAN,25.60000
27240,0x000E,1,FALSE,1414.14,5.42332,0.18920,3.66730,NAN,NAN,25.60000
27290,0x000E,1,FALSE,1416.68,5.43266,0.18930,3.66570,NAN,NAN,25.60000
27340,0x000E,1,FALSE,1419.33,5.44236,0.18920,3.66410,NAN,NAN,25.60000
27390,0x000E,1,FALSE,1421.88,5.45168,0.18920,3.66280,NAN,NAN,25.60000
27440,0x000E,1,FALSE,1424.52,5.46138,0.18930,3.66170,NAN,NAN,25.60000
27490,0x000E,1,FALSE,1427.07,5.47069,0.18920,3.66080,NAN,NAN,25.60000
27540,0x000E,1,FALSE,1429.66,5.48019,0.18930,3.66010,NAN,NAN,25.60000
27590,0x000E,1,FALSE,1432.31,5.48988,0.18920,3.65960,NAN,NAN,25.60000
27640,0x000E,1,FALSE,1434.85,5.49918,0.18920,3.65920,NAN,NAN,25.60000
27690,0x000E,1,FALSE,1437.5,5.50886,0.18920,3.65880,NAN,NAN,25.60000
27740,0x000E,1,FALSE,1440.04,5.51817,0.18930,3.65850,NAN,NAN,25.60000
27790,0x000E,1,FALSE,1442.69,5.52785,0.18930,3.65820,NAN,NAN,25.60000
27840,0x000E,1,FALSE,1445.23,5.53715,0.18920,3.65800,NAN,NAN,25.60000
27890,0x000E,1,FALSE,1447.88,5.54683,0.18920,3.65770,NAN,NAN,25.60000
27940,0x000E,1,FALSE,1450.42,5.55614,0.18930,3.65750,NAN,NAN,25.60000
27990,0x000E,1,FALSE,1453.02,5.56563,0.18920,3.65730,NAN,NAN,25.60000
28040,0x000E,1,FALSE,1455.67,5.57531,0.18920,3.65700,NAN,NAN,25.60000
28090,0x000E,1,FALSE,1458.21,5.58461,0.18920,3.65670,NAN,NAN,25.60000
28140,0x000E,1,FALSE,1460.86,5.59429,0.18930,3.65650,NAN,NAN,25.60000
28190,0x000E,1,FALSE,1463.4,5.60360,0.18930,3.65630,NAN,NAN,25.60000
28240,0x000E,1,FALSE,1466.05,5.61328,0.18920,3.65600,NAN,NAN,25.60000
28290,0x000E,1,FALSE,1468.6,5.62259,0.18930,3.65580,NAN,NAN,25.60000
28340,0x000E,1,FALSE,1471.24,5.63227,0.18930,3.65550,NAN,NAN,25.60000
28390,0x000E,1,FALSE,1473.79,5.64157,0.18920,3.65520,NAN,NAN,25.50000
28440,0x000E,1,FALSE,1476.39,5.65106,0.18930,3.65500,NAN,NAN,25.60000
28490,0x000E,1,FALSE,1479.03,5.66074,0.18930,3.65470,NAN,NAN,25.60000
28540,0x000E,1,FALSE,1481.58,5.67004,0.18930,3.65440,NAN,NAN,25.60000
28590,0x000E,1,FALSE,1484.23,5.67971,0.18920,3.65420,NAN,NAN,25.60000
28640,0x000E,1,FALSE,1486.77,5.68901,0.18930,3.65390,NAN,NAN,25.60000
28690,0x000E,1,FALSE,1489.42,5.69868,0.18930,3.65360,NAN,NAN,25.60000
28740,0x000E,1,FALSE,1491.96,5.70798,0.18930,3.65330,NAN,NAN,25.60000
28790,0x000E,1,FALSE,1494.56,5.71746,0.18930,3.65290,NAN,NAN,25.60000
28840,0x000E,1,FALSE,1497.21,5.72713,0.18930,3.65270,NAN,NAN,25.60000
28890,0x000E,1,FALSE,1499.75,5.73642,0.18930,3.65230,NAN,NAN,25.60000
28940,0x000E,1,FALSE,1502.4,5.74610,0.18930,3.65200,NAN,NAN,25.60000
28990,0x000E,1,FALSE,1504.94,5.75538,0.18930,3.65170,NAN,NAN,25.60000
29040,0x000E,1,FALSE,1507.59,5.76505,0.18930,3.65140,NAN,NAN,25.60000
29090,0x000E,1,FALSE,1510.13,5.77434,0.18930,3.65100,NAN,NAN,25.60000
29140,0x000E,1,FALSE,1512.78,5.78401,0.18930,3.65060,NAN,NAN,25.60000
29190,0x000E,1,FALSE,1515.33,5.79329,0.18930,3.65030,NAN,NAN,25.60000
29240,0x000E,1,FALSE,1517.92,5.80277,0.18920,3.64990,NAN,NAN,25.60000
29290,0x000E,1,FALSE,1520.57,5.81244,0.18930,3.64950,NAN,NAN,25.60000
29340,0x000E,1,FALSE,1523.12,5.82172,0.18930,3.64910,NAN,NAN,25.60000
29390,0x000E,1,FALSE,1525.77,5.83138,0.18930,3.64870,NAN,NAN,25.60000
29440,0x000E,1,FALSE,1528.31,5.84067,0.18930,3.64830,NAN,NAN,25.60000
29490,0x000E,1,FALSE,1530.96,5.85033,0.18930,3.64780,NAN,NAN,25.60000
29540,0x000E,1,FALSE,1533.5,5.85961,0.18930,3.64740,NAN,NAN,25.60000
29590,0x000E,1,FALSE,1536.15,5.86926,0.18930,3.64690,NAN,NAN,25.60000
29640,0x000E,1,FALSE,1538.69,5.87854,0.18930,3.64640,NAN,NAN,25.60000
29690,0x000E,1,FALSE,1541.29,5.88801,0.18930,3.64590,NAN,NAN,25.60000
29740,0x000E,1,FALSE,1543.94,5.89766,0.18930,3.64530,NAN,NAN,25.60000
29790,0x000E,1,FALSE,1546.48,5.90693,0.18930,3.64470,NAN,NAN,25.60000
29840,0x000E,1,FALSE,1549.13,5.91658,0.18930,3.64410,NAN,NAN,25.60000
29890,0x000E,1,FALSE,1551.68,5.92585,0.18930,3.64350,NAN,NAN,25.60000
29940,0x000E,1,FALSE,1554.32,5.93550,0.18930,3.64280,NAN,NAN,25.60000
29990,0x000E,1,FALSE,1556.87,5.94476,0.18930,3.64210,NAN,NAN,25.60000
30040,0x000E,1,FALSE,1559.52,5.95441,0.18930,3.64130,NAN,NAN,25.60000
30090,0x000E,1,FALSE,1562.06,5.96367,0.18930,3.64050,NAN,NAN,25.60000
30140,0x000E,1,FALSE,1564.66,5.97312,0.18930,3.63960,NAN,NAN,25.60000
30190,0x000E,1,FALSE,1567.3,5.98276,0.18930,3.63860,NAN,NAN,25.60000
30240,0x000E,1,FALSE,1569.85,5.99201,0.18930,3.63760,NAN,NAN,25.60000
30290,0x000E,1,FALSE,1572.5,6.00164,0.18930,3.63640,NAN,NAN,25.60000
30340,0x000E,1,FALSE,1575.04,6.01089,0.18930,3.63500,NAN,NAN,25.60000
30390,0x000E,1,FALSE,1577.69,6.02052,0.18930,3.63350,NAN,NAN,25.60000
30440,0x000E,1,FALSE,1580.23,6.02975,0.18930,3.63180,NAN,NAN,25.60000
30490,0x000E,1,FALSE,1582.88,6.03936,0.18930,3.62980,NAN,NAN,25.60000
30540,0x000E,1,FALSE,1585.42,6.04859,0.18930,3.62760,NAN,NAN,25.60000
30590,0x000E,1,FALSE,1588.02,6.05800,0.18930,3.62490,NAN,NAN,25.60000
30640,0x000E,1,FALSE,1590.67,6.06759,0.18930,3.62170,NAN,NAN,25.60000
30690,0x000E,1,FALSE,1593.21,6.07680,0.18930,3.61800,NAN,NAN,25.60000
30740,0x000E,1,FALSE,1595.86,6.08637,0.18930,3.61370,NAN,NAN,25.70000
30790,0x000E,1,FALSE,1598.4,6.09556,0.18930,3.60870,NAN,NAN,25.60000
30840,0x000E,1,FALSE,1601.05,6.10511,0.18930,3.60300,NAN,NAN,25.60000
30890,0x000E,1,FALSE,1603.59,6.11426,0.18930,3.59680,NAN,NAN,25.60000
30940,0x000E,1,FALSE,1606.24,6.12377,0.18930,3.58990,NAN,NAN,25.70000
30990,0x000E,1,FALSE,1608.78,6.13289,0.18930,3.58280,NAN,NAN,25.70000
31040,0x000E,1,FALSE,1611.38,6.14218,0.18930,3.57520,NAN,NAN,25.70000
31090,0x000E,1,FALSE,1614.02,6.15163,0.18930,3.56710,NAN,NAN,25.70000
31140,0x000E,1,FALSE,1616.57,6.16069,0.18920,3.55880,NAN,NAN,25.70000
31190,0x000E,1,FALSE,1619.21,6.17010,0.18930,3.54990,NAN,NAN,25.70000
31240,0x000E,1,FALSE,1621.76,6.17911,0.18930,3.54090,NAN,NAN,25.70000
31290,0x000E,1,FALSE,1624.4,6.18847,0.18930,3.53120,NAN,NAN,25.70000
31340,0x000E,1,FALSE,1626.95,6.19744,0.18930,3.52130,NAN,NAN,25.70000
31390,0x000E,1,FALSE,1629.54,6.20656,0.18930,3.51090,NAN,NAN,25.70000
31440,0x000E,1,FALSE,1632.19,6.21584,0.18930,3.49980,NAN,NAN,25.70000
31490,0x000E,1,FALSE,1634.73,6.22472,0.18930,3.48840,NAN,NAN,25.70000
31540,0x000E,1,FALSE,1637.38,6.23394,0.18930,3.47620,NAN,NAN,25.70000
31590,0x000E,1,FALSE,1639.92,6.24276,0.18930,3.46360,NAN,NAN,25.70000
31640,0x000E,1,FALSE,1642.57,6.25191,0.18920,3.45000,NAN,NAN,25.70000
31690,0x000E,1,FALSE,1645.11,6.26067,0.18930,3.43600,NAN,NAN,25.80000
31740,0x000E,1,FALSE,1647.76,6.26974,0.18930,3.42070,NAN,NAN,25.80000
31790,0x000E,1,FALSE,1650.3,6.27842,0.18930,3.40480,NAN,NAN,25.80000
31840,0x000E,1,FALSE,1652.9,6.28723,0.18930,3.38760,NAN,NAN,25.80000
31890,0x000E,1,FALSE,1655.54,6.29617,0.18930,3.36890,NAN,NAN,25.80000
31940,0x000E,1,FALSE,1658.08,6.30471,0.18930,3.34930,NAN,NAN,25.80000
31990,0x000E,1,FALSE,1660.73,6.31355,0.18930,3.32750,NAN,NAN,25.80000
32040,0x000E,1,FALSE,1663.27,6.32198,0.18930,3.30410,NAN,NAN,25.80000
32090,0x000E,1,FALSE,1665.92,6.33069,0.18920,3.27770,NAN,NAN,25.80000
32140,0x000E,1,FALSE,1668.46,6.33899,0.18930,3.24910,NAN,NAN,25.80000
32190,0x000E,1,FALSE,1671.11,6.34755,0.18930,3.21600,NAN,NAN,25.80000
32240,0x000E,1,FALSE,1673.66,6.35568,0.18930,3.17840,NAN,NAN,25.80000
32290,0x000E,1,FALSE,1676.25,6.36387,0.18930,3.13060,NAN,NAN,25.80000
32340,0x000E,1,FALSE,1678.9,6.37207,0.18930,3.05120,NAN,NAN,25.80000
32390,0x000E,1,FALSE,1681.44,6.37964,0.18930,2.86850,NAN,NAN,25.80000
32412,0x000E,1,FALSE,1682.59,5.16643,0.18930,2.75000,NAN,NAN,25.80000

[DISCHARGE RESULT]
LoRange,FALSE
FinishedBy,1(Cut Voltage)
OpenVolt[V],4.09200
OpenCurr[A],0.00010
OpenTemp[°C],25.20000
StartVolt[V],4.08030
StartCurr[A],0.18930
StartTemp[°C],25.20000
CutoffVolt[V],2.75000
CutoffCurr[A],0.18930
CutoffTemp[°C],25.80000
TimeElapsed[s],32412
Power[Wh],5.16643
StartPulseA[V],NAN
CurrPulseA[V],NAN
StartPulseB[V],NAN
CurrPulseB[V],NAN
TempSet[°C],OFF
TempMon[°C],OFF
HumidSet[%],OFF
HumidMon[%],OFF

[LIFE]
CycleNo,2
Action,Discharge
Start,2021/03/10,9:57:39
End,2021/03/10,18:57:49
Capacity[mAh],1344.42

[IMPEDANCE],AfterCharge,AfterRest
Range,0,0
AutoRange,FALSE,FALSE
Resistance[ohm],NAN,NAN
Reactance[ohm],NAN,NAN