File: csvFiles/20210227/temp5.CSV
[TEST CONDITION]
CondName,バッテリ温度特性試験20210227
ModelID,21
Average,0
CheckDut,FALSE
AutoFine,FALSE
DateTime,2021/02/27,21:40:39
Operator,米山まうむ
Notes,運用に向けてバッテリの温度特性を測定する
運用時の消費電流を鑑み，0.1C放電で行う
なおこんなに運用直前にやることではないので，次期プロジェクトの人間はもっと早い段階で行うことをお勧めする
BatteryName,UF103450P
NominalCapacity[mAh],1800.0
NominalVoltage[V],3.70000
Volume[ml],0.10
Weight[g],38.30
SoftOvp[V],4.40000
SoftUvp[V],2.50000
SoftOah[%],110
SoftOtp[°C],60.00000
DeltaT[s],10.00000
DeltaV[V],0.10000
DeltaI[A],0.10000
ImpRange[ohm],0
Frequency[Hz],1000
AutoRange,FALSE
AfterCharge,FALSE
AfterChargeRest,FALSE
AfterDischarge,FALSE
AfterDischargeRest,FALSE
CapacityRate_C[%],OFF
CapacityRate_D[%],OFF
Impedance_C[ohm],OFF
Impedance_D[ohm],OFF
SeqInfoName,

[CHARGE SHEET]
SheetNo,2
Range,HIGH
Mode,CC-CV
ChargeTime[s],0
RestTime[s],0
Current[A],0.00000
CvVolt[V],0.00000
CvTime[s],0
ItCurrent[A],OFF
ItTime[s],OFF

[DISCHARGE SHEET]
SheetNo,2
Range,HIGH
Mode,CC
DischargeTime[s],43200
RestTime[s],0
Current[A],0.18800
CapacityVolt[V],3.70000
CutoffVolt[V],2.75000

[DISCHARGE MONITOR]
TimeElapsed[s],StdState,OpnState,LowRange,Capacity[mAh],Power[Wh],Curr[A],Volt[V],VoltHi[V],VoltLo[V],Temp[°C],TermState,CellVolt[V],CellVoltHi[V],CellVoltLo[V],CellTemp[°C],(continued)
0,0x000E,0,FALSE,0.00000,0.00000,0.00000,4.07920,NAN,NAN,5.20000
40,0x000E,1,FALSE,2.02708,0.00818,0.18930,4.03410,NAN,NAN,5.30000
90,0x000E,1,FALSE,4.67753,0.01887,0.18930,4.02790,NAN,NAN,5.20000
140,0x000E,1,FALSE,7.22419,0.02912,0.18930,4.02400,NAN,NAN,5.20000
190,0x000E,1,FALSE,9.87544,0.03978,0.18930,4.02110,NAN,NAN,5.30000
240,0x000E,1,FALSE,12.42194,0.05002,0.18930,4.01880,NAN,NAN,5.50000
290,0x000E,1,FALSE,15.07175,0.06066,0.18930,4.01680,NAN,NAN,5.60000
340,0x000E,1,FALSE,17.61767,0.07089,0.18930,4.01510,NAN,NAN,5.70000
390,0x000E,1,FALSE,20.21625,0.08132,0.18930,4.01350,NAN,NAN,5.80000
440,0x000E,1,FALSE,22.86692,0.09195,0.18930,4.01200,NAN,NAN,5.60000
490,0x000E,1,FALSE,25.41411,0.10217,0.18930,4.01030,NAN,NAN,5.10000
540,0x000E,1,FALSE,28.06508,0.11280,0.18930,4.00850,NAN,NAN,4.90000
590,0x000E,1,FALSE,30.61172,0.12300,0.18930,4.00680,NAN,NAN,5.20000
640,0x000E,1,FALSE,33.26236,0.13362,0.18930,4.00530,NAN,NAN,5.30000
690,0x000E,1,FALSE,35.80956,0.14382,0.18930,4.00370,NAN,NAN,5.40000
740,0x000E,1,FALSE,38.46039,0.15443,0.18930,4.00230,NAN,NAN,5.30000
790,0x000E,1,FALSE,41.00753,0.16462,0.18930,4.00080,NAN,NAN,5.30000
840,0x000E,1,FALSE,43.60611,0.17502,0.18930,3.99940,NAN,NAN,5.40000
890,0x000E,1,FALSE,46.25678,0.18562,0.18930,3.99810,NAN,NAN,5.60000
940,0x000E,1,FALSE,48.80336,0.19580,0.18930,3.99680,NAN,NAN,5.70000
990,0x000E,1,FALSE,51.45386,0.20639,0.18930,3.99570,NAN,NAN,5.80000
1040,0x000E,1,FALSE,54.00025,0.21656,0.18930,3.99450,NAN,NAN,5.90000
1090,0x000E,1,FALSE,56.65017,0.22714,0.18930,3.99320,NAN,NAN,5.60000
1140,0x000E,1,FALSE,59.19645,0.23731,0.18930,3.99180,NAN,NAN,5.00000
1190,0x000E,1,FALSE,61.84617,0.24788,0.18930,3.99020,NAN,NAN,5.00000
1240,0x000E,1,FALSE,64.39156,0.25804,0.18930,3.98870,NAN,NAN,5.30000
1290,0x000E,1,FALSE,66.98769,0.26839,0.18930,3.98740,NAN,NAN,5.40000
1340,0x000E,1,FALSE,69.63663,0.27895,0.18930,3.98600,NAN,NAN,5.50000
1390,0x000E,1,FALSE,72.18261,0.28909,0.18930,3.98460,NAN,NAN,5.30000
1440,0x000E,1,FALSE,74.83225,0.29965,0.18930,3.98330,NAN,NAN,5.40000
1490,0x000E,1,FALSE,77.37847,0.30979,0.18930,3.98200,NAN,NAN,5.50000
1540,0x000E,1,FALSE,80.02822,0.32034,0.18930,3.98070,NAN,NAN,5.60000
1590,0x000E,1,FALSE,82.57425,0.33047,0.18930,3.97960,NAN,NAN,5.70000
1640,0x000E,1,FALSE,85.22456,0.34102,0.18930,3.97840,NAN,NAN,5.80000
1690,0x000E,1,FALSE,87.77126,0.35115,0.18930,3.97730,NAN,NAN,5.90000
1740,0x000E,1,FALSE,90.36950,0.36148,0.18930,3.97610,NAN,NAN,5.50000
1790,0x000E,1,FALSE,93.01978,0.37201,0.18930,3.97470,NAN,NAN,5.00000
1840,0x000E,1,FALSE,95.56558,0.38213,0.18930,3.97320,NAN,NAN,5.10000
1890,0x000E,1,FALSE,98.21591,0.39266,0.18930,3.97180,NAN,NAN,5.30000
1940,0x000E,1,FALSE,100.763,0.40277,0.18930,3.97050,NAN,NAN,5.40000
1990,0x000E,1,FALSE,103.414,0.41329,0.18930,3.96920,NAN,NAN,5.40000
2040,0x000E,1,FALSE,105.96,0.42340,0.18930,3.96790,NAN,NAN,5.40000
2090,0x000E,1,FALSE,108.559,0.43371,0.18930,3.96660,NAN,NAN,5.40000
2140,0x000E,1,FALSE,111.209,0.44422,0.18930,3.96540,NAN,NAN,5.50000
2190,0x000E,1,FALSE,113.756,0.45431,0.18930,3.96420,NAN,NAN,5.60000
2240,0x000E,1,FALSE,116.407,0.46482,0.18930,3.96310,NAN,NAN,5.70000
2290,0x000E,1,FALSE,118.952,0.47490,0.18930,3.96210,NAN,NAN,5.80000
2340,0x000E,1,FALSE,121.602,0.48540,0.18930,3.96110,NAN,NAN,5.90000
2390,0x000E,1,FALSE,124.148,0.49549,0.18930,3.95990,NAN,NAN,5.40000
2440,0x000E,1,FALSE,126.798,0.50598,0.18930,3.95850,NAN,NAN,4.90000
2490,0x000E,1,FALSE,129.344,0.51605,0.18930,3.95720,NAN,NAN,5.10000
2540,0x000E,1,FALSE,131.94,0.52632,0.18930,3.95590,NAN,NAN,5.30000
2590,0x000E,1,FALSE,134.59,0.53680,0.18930,3.95460,NAN,NAN,5.40000
2640,0x000E,1,FALSE,137.137,0.54687,0.18930,3.95340,NAN,NAN,5.40000
2690,0x000E,1,FALSE,139.787,0.55735,0.18930,3.95220,NAN,NAN,5.30000
2740,0x000E,1,FALSE,142.334,0.56741,0.18930,3.95100,NAN,NAN,5.40000
2790,0x000E,1,FALSE,144.984,0.57788,0.18930,3.94990,NAN,NAN,5.50000
2840,0x000E,1,FALSE,147.53,0.58794,0.18930,3.94890,NAN,NAN,5.60000
2890,0x000E,1,FALSE,150.181,0.59840,0.18930,3.94790,NAN,NAN,5.70000
2940,0x000E,1,FALSE,152.727,0.60845,0.18930,3.94700,NAN,NAN,5.80000
2990,0x000E,1,FALSE,155.325,0.61870,0.18930,3.94610,NAN,NAN,5.80000
3040,0x000E,1,FALSE,157.975,0.62916,0.18930,3.94500,NAN,NAN,5.30000
3090,0x000E,1,FALSE,160.522,0.63920,0.18930,3.94370,NAN,NAN,4.80000
3140,0x000E,1,FALSE,163.171,0.64965,0.18930,3.94240,NAN,NAN,5.10000
3190,0x000E,1,FALSE,165.717,0.65968,0.18930,3.94120,NAN,NAN,5.30000
3240,0x000E,1,FALSE,168.366,0.67012,0.18930,3.94010,NAN,NAN,5.40000
3290,0x000E,1,FALSE,170.913,0.68015,0.18930,3.93900,NAN,NAN,5.30000
3340,0x000E,1,FALSE,173.562,0.69059,0.18930,3.93790,NAN,NAN,5.30000
3390,0x000E,1,FALSE,176.108,0.70061,0.18930,3.93680,NAN,NAN,5.40000
3440,0x000E,1,FALSE,178.706,0.71083,0.18930,3.93580,NAN,NAN,5.50000
3490,0x000E,1,FALSE,181.356,0.72126,0.18930,3.93480,NAN,NAN,5.60000
3540,0x000E,1,FALSE,183.901,0.73128,0.18930,3.93390,NAN,NAN,5.70000
3590,0x000E,1,FALSE,186.552,0.74170,0.18930,3.93310,NAN,NAN,5.80000
3640,0x000E,1,FALSE,189.098,0.75172,0.18930,3.93240,NAN,NAN,5.80000
3690,0x000E,1,FALSE,191.749,0.76214,0.18930,3.93140,NAN,NAN,5.40000
3740,0x000E,1,FALSE,194.296,0.77215,0.18930,3.93010,NAN,NAN,4.80000
3790,0x000E,1,FALSE,196.947,0.78256,0.18930,3.92880,NAN,NAN,5.10000
3840,0x000E,1,FALSE,199.492,0.79256,0.18930,3.92780,NAN,NAN,5.20000
3890,0x000E,1,FALSE,202.09,0.80277,0.18930,3.92670,NAN,NAN,5.30000
3940,0x000E,1,FALSE,204.739,0.81316,0.18930,3.92560,NAN,NAN,5.30000
3990,0x000E,1,FALSE,207.286,0.82316,0.18930,3.92460,NAN,NAN,5.30000
4040,0x000E,1,FALSE,209.937,0.83356,0.18930,3.92360,NAN,NAN,5.40000
4090,0x000E,1,FALSE,212.484,0.84355,0.18930,3.92260,NAN,NAN,5.50000
4140,0x000E,1,FALSE,215.134,0.85395,0.18930,3.92170,NAN,NAN,5.60000
4190,0x000E,1,FALSE,217.681,0.86393,0.18930,3.92090,NAN,NAN,5.70000
4240,0x000E,1,FALSE,220.278,0.87411,0.18930,3.92010,NAN,NAN,5.80000
4290,0x000E,1,FALSE,222.928,0.88450,0.18930,3.91940,NAN,NAN,5.80000
4340,0x000E,1,FALSE,225.475,0.89448,0.18930,3.91850,NAN,NAN,5.40000
4390,0x000E,1,FALSE,228.125,0.90486,0.18930,3.91730,NAN,NAN,4.90000
4440,0x000E,1,FALSE,230.671,0.91483,0.18930,3.91610,NAN,NAN,5.10000
4490,0x000E,1,FALSE,233.321,0.92521,0.18930,3.91500,NAN,NAN,5.20000
4540,0x000E,1,FALSE,235.867,0.93518,0.18930,3.91390,NAN,NAN,5.30000
4590,0x000E,1,FALSE,238.518,0.94555,0.18930,3.91290,NAN,NAN,5.30000
4640,0x000E,1,FALSE,241.064,0.95551,0.18930,3.91190,NAN,NAN,5.30000
4690,0x000E,1,FALSE,243.662,0.96567,0.18930,3.91090,NAN,NAN,5.40000
4740,0x000E,1,FALSE,246.312,0.97603,0.18930,3.91000,NAN,NAN,5.50000
4790,0x000E,1,FALSE,248.859,0.98599,0.18930,3.90920,NAN,NAN,5.60000
4840,0x000E,1,FALSE,251.509,0.99635,0.18930,3.90830,NAN,NAN,5.70000
4890,0x000E,1,FALSE,254.055,1.00629,0.18930,3.90760,NAN,NAN,5.80000
4940,0x000E,1,FALSE,256.705,1.01665,0.18930,3.90690,NAN,NAN,5.80000
4990,0x000E,1,FALSE,259.252,1.02660,0.18930,3.90590,NAN,NAN,5.30000
5040,0x000E,1,FALSE,261.901,1.03694,0.18930,3.90470,NAN,NAN,4.80000
5090,0x000E,1,FALSE,264.447,1.04688,0.18930,3.90360,NAN,NAN,5.10000
5140,0x000E,1,FALSE,267.045,1.05702,0.18930,3.90250,NAN,NAN,5.30000
5190,0x000E,1,FALSE,269.694,1.06736,0.18930,3.90150,NAN,NAN,5.40000
5240,0x000E,1,FALSE,272.239,1.07728,0.18930,3.90050,NAN,NAN,5.40000
5290,0x000E,1,FALSE,274.888,1.08761,0.18930,3.89940,NAN,NAN,5.30000
5340,0x000E,1,FALSE,277.433,1.09754,0.18930,3.89850,NAN,NAN,5.50000
5390,0x000E,1,FALSE,280.083,1.10786,0.18930,3.89760,NAN,NAN,5.50000
5440,0x000E,1,FALSE,282.629,1.11779,0.18930,3.89670,NAN,NAN,5.70000
5490,0x000E,1,FALSE,285.28,1.12811,0.18930,3.89590,NAN,NAN,5.80000
5540,0x000E,1,FALSE,287.825,1.13803,0.18930,3.89520,NAN,NAN,5.90000
5590,0x000E,1,FALSE,290.423,1.14815,0.18930,3.89440,NAN,NAN,5.80000
5640,0x000E,1,FALSE,293.073,1.15847,0.18930,3.89340,NAN,NAN,5.20000
5690,0x000E,1,FALSE,295.619,1.16837,0.18930,3.89220,NAN,NAN,4.90000
5740,0x000E,1,FALSE,298.267,1.17868,0.18930,3.89100,NAN,NAN,5.20000
5790,0x000E,1,FALSE,300.811,1.18858,0.18930,3.89000,NAN,NAN,5.30000
5840,0x000E,1,FALSE,303.461,1.19888,0.18930,3.88890,NAN,NAN,5.40000
5890,0x000E,1,FALSE,306.006,1.20878,0.18930,3.88790,NAN,NAN,5.30000
5940,0x000E,1,FALSE,308.657,1.21908,0.18930,3.88690,NAN,NAN,5.40000
5990,0x000E,1,FALSE,311.203,1.22898,0.18930,3.88590,NAN,NAN,5.50000
6040,0x000E,1,FALSE,313.8,1.23907,0.18930,3.88500,NAN,NAN,5.60000
6090,0x000E,1,FALSE,316.45,1.24936,0.18930,3.88420,NAN,NAN,5.70000
6140,0x000E,1,FALSE,318.996,1.25925,0.18930,3.88340,NAN,NAN,5.80000
6190,0x000E,1,FALSE,321.647,1.26954,0.18930,3.88260,NAN,NAN,5.90000
6240,0x000E,1,FALSE,324.194,1.27943,0.18930,3.88180,NAN,NAN,5.70000
6290,0x000E,1,FALSE,326.844,1.28971,0.18930,3.88080,NAN,NAN,5.10000
6340,0x000E,1,FALSE,329.39,1.29959,0.18930,3.87950,NAN,NAN,5.00000
6390,0x000E,1,FALSE,331.989,1.30967,0.18930,3.87830,NAN,NAN,5.20000
6440,0x000E,1,FALSE,334.639,1.31995,0.18930,3.87730,NAN,NAN,5.40000
6490,0x000E,1,FALSE,337.185,1.32982,0.18930,3.87630,NAN,NAN,5.50000
6540,0x000E,1,FALSE,339.836,1.34009,0.18930,3.87520,NAN,NAN,5.40000
6590,0x000E,1,FALSE,342.383,1.34996,0.18930,3.87420,NAN,NAN,5.40000
6640,0x000E,1,FALSE,345.035,1.36023,0.18930,3.87320,NAN,NAN,5.50000
6690,0x000E,1,FALSE,347.582,1.37009,0.18930,3.87220,NAN,NAN,5.60000
6740,0x000E,1,FALSE,350.232,1.38035,0.18930,3.87140,NAN,NAN,5.70000
6790,0x000E,1,FALSE,352.778,1.39021,0.18930,3.87050,NAN,NAN,5.80000
6840,0x000E,1,FALSE,355.378,1.40027,0.18930,3.86980,NAN,NAN,5.90000
6890,0x000E,1,FALSE,358.028,1.41052,0.18930,3.86890,NAN,NAN,5.70000
6940,0x000E,1,FALSE,360.576,1.42038,0.18930,3.86790,NAN,NAN,5.20000
6990,0x000E,1,FALSE,363.228,1.43063,0.18930,3.86650,NAN,NAN,5.00000
7040,0x000E,1,FALSE,365.775,1.44048,0.18930,3.86540,NAN,NAN,5.30000
7090,0x000E,1,FALSE,368.426,1.45073,0.18930,3.86430,NAN,NAN,5.40000
7140,0x000E,1,FALSE,370.973,1.46057,0.18930,3.86320,NAN,NAN,5.50000
7190,0x000E,1,FALSE,373.624,1.47080,0.18930,3.86210,NAN,NAN,5.40000
7240,0x000E,1,FALSE,376.171,1.48064,0.18930,3.86110,NAN,NAN,5.40000
7290,0x000E,1,FALSE,378.77,1.49067,0.18930,3.86000,NAN,NAN,5.50000
7340,0x000E,1,FALSE,381.421,1.50090,0.18930,3.85910,NAN,NAN,5.60000
7390,0x000E,1,FALSE,383.968,1.51073,0.18930,3.85820,NAN,NAN,5.70000
7440,0x000E,1,FALSE,386.62,1.52096,0.18930,3.85730,NAN,NAN,5.90000
7490,0x000E,1,FALSE,389.166,1.53078,0.18930,3.85650,NAN,NAN,5.90000
7540,0x000E,1,FALSE,391.818,1.54101,0.18930,3.85560,NAN,NAN,5.60000
7590,0x000E,1,FALSE,394.365,1.55082,0.18930,3.85440,NAN,NAN,5.10000
7640,0x000E,1,FALSE,397.015,1.56104,0.18930,3.85310,NAN,NAN,5.00000
7690,0x000E,1,FALSE,399.562,1.57085,0.18930,3.85180,NAN,NAN,5.30000
7740,0x000E,1,FALSE,402.162,1.58086,0.18930,3.85070,NAN,NAN,5.40000
7790,0x000E,1,FALSE,404.812,1.59106,0.18930,3.84960,NAN,NAN,5.50000
7840,0x000E,1,FALSE,407.359,1.60086,0.18930,3.84840,NAN,NAN,5.40000
7890,0x000E,1,FALSE,410.01,1.61106,0.18930,3.84730,NAN,NAN,5.40000
7940,0x000E,1,FALSE,412.557,1.62086,0.18930,3.84620,NAN,NAN,5.50000
7990,0x000E,1,FALSE,415.208,1.63105,0.18930,3.84520,NAN,NAN,5.60000
8040,0x000E,1,FALSE,417.754,1.64084,0.18930,3.84420,NAN,NAN,5.70000
8090,0x000E,1,FALSE,420.405,1.65103,0.18930,3.84330,NAN,NAN,5.80000
8140,0x000E,1,FALSE,422.951,1.66081,0.18930,3.84240,NAN,NAN,5.90000
8190,0x000E,1,FALSE,425.549,1.67079,0.18930,3.84150,NAN,NAN,5.80000
8240,0x000E,1,FALSE,428.198,1.68097,0.18930,3.84040,NAN,NAN,5.20000
8290,0x000E,1,FALSE,430.745,1.69075,0.18930,3.83900,NAN,NAN,5.00000
8340,0x000E,1,FALSE,433.396,1.70092,0.18930,3.83770,NAN,NAN,5.30000
8390,0x000E,1,FALSE,435.943,1.71069,0.18930,3.83650,NAN,NAN,5.40000
8440,0x000E,1,FALSE,438.593,1.72086,0.18930,3.83530,NAN,NAN,5.50000
8490,0x000E,1,FALSE,441.141,1.73063,0.18930,3.83410,NAN,NAN,5.40000
8540,0x000E,1,FALSE,443.741,1.74059,0.18930,3.83290,NAN,NAN,5.40000
8590,0x000E,1,FALSE,446.392,1.75075,0.18930,3.83180,NAN,NAN,5.50000
8640,0x000E,1,FALSE,448.938,1.76051,0.18930,3.83070,NAN,NAN,5.60000
8690,0x000E,1,FALSE,451.589,1.77066,0.18930,3.82970,NAN,NAN,5.70000
8740,0x000E,1,FALSE,454.136,1.78041,0.18930,3.82880,NAN,NAN,5.80000
8790,0x000E,1,FALSE,456.787,1.79056,0.18930,3.82780,NAN,NAN,5.90000
8840,0x000E,1,FALSE,459.334,1.80031,0.18930,3.82690,NAN,NAN,5.90000
8890,0x000E,1,FALSE,461.986,1.81046,0.18930,3.82580,NAN,NAN,5.40000
8940,0x000E,1,FALSE,464.532,1.82020,0.18930,3.82430,NAN,NAN,4.90000
8990,0x000E,1,FALSE,467.131,1.83013,0.18930,3.82310,NAN,NAN,5.20000
9040,0x000E,1,FALSE,469.782,1.84027,0.18930,3.82180,NAN,NAN,5.40000
9090,0x000E,1,FALSE,472.329,1.85000,0.18930,3.82070,NAN,NAN,5.50000
9140,0x000E,1,FALSE,474.98,1.86012,0.18930,3.81950,NAN,NAN,5.40000
9190,0x000E,1,FALSE,477.527,1.86985,0.18930,3.81830,NAN,NAN,5.40000
9240,0x000E,1,FALSE,480.177,1.87997,0.18930,3.81720,NAN,NAN,5.50000
9290,0x000E,1,FALSE,482.723,1.88968,0.18930,3.81620,NAN,NAN,5.60000
9340,0x000E,1,FALSE,485.374,1.89979,0.18930,3.81520,NAN,NAN,5.70000
9390,0x000E,1,FALSE,487.92,1.90951,0.18930,3.81420,NAN,NAN,5.80000
9440,0x000E,1,FALSE,490.519,1.91942,0.18930,3.81340,NAN,NAN,5.90000
9490,0x000E,1,FALSE,493.168,1.92952,0.18930,3.81250,NAN,NAN,5.90000
9540,0x000E,1,FALSE,495.715,1.93923,0.18930,3.81140,NAN,NAN,5.40000
9590,0x000E,1,FALSE,498.366,1.94933,0.18930,3.81010,NAN,NAN,4.90000
9640,0x000E,1,FALSE,500.913,1.95903,0.18930,3.80890,NAN,NAN,5.20000
9690,0x000E,1,FALSE,503.563,1.96912,0.18930,3.80780,NAN,NAN,5.40000
9740,0x000E,1,FALSE,506.109,1.97882,0.18930,3.80670,NAN,NAN,5.50000
9790,0x000E,1,FALSE,508.76,1.98890,0.18930,3.80560,NAN,NAN,5.40000
9840,0x000E,1,FALSE,511.306,1.99859,0.18930,3.80460,NAN,NAN,5.40000
9890,0x000E,1,FALSE,513.904,2.00847,0.18930,3.80360,NAN,NAN,5.50000
9940,0x000E,1,FALSE,516.553,2.01855,0.18930,3.80260,NAN,NAN,5.60000
9990,0x000E,1,FALSE,519.099,2.02823,0.18930,3.80180,NAN,NAN,5.70000
10040,0x000E,1,FALSE,521.749,2.03830,0.18930,3.80100,NAN,NAN,5.80000
10090,0x000E,1,FALSE,524.294,2.04797,0.18930,3.80030,NAN,NAN,5.90000
10140,0x000E,1,FALSE,526.942,2.05803,0.18930,3.79950,NAN,NAN,5.90000
10190,0x000E,1,FALSE,529.487,2.06770,0.18930,3.79870,NAN,NAN,5.40000
10240,0x000E,1,FALSE,532.136,2.07776,0.18930,3.79750,NAN,NAN,4.90000
10290,0x000E,1,FALSE,534.682,2.08743,0.18930,3.79640,NAN,NAN,5.20000
10340,0x000E,1,FALSE,537.279,2.09729,0.18930,3.79550,NAN,NAN,5.40000
10390,0x000E,1,FALSE,539.929,2.10734,0.18930,3.79460,NAN,NAN,5.50000
10440,0x000E,1,FALSE,542.475,2.11700,0.18930,3.79370,NAN,NAN,5.50000
10490,0x000E,1,FALSE,545.125,2.12705,0.18930,3.79280,NAN,NAN,5.40000
10540,0x000E,1,FALSE,547.671,2.13671,0.18930,3.79190,NAN,NAN,5.50000
10590,0x000E,1,FALSE,550.32,2.14675,0.18930,3.79110,NAN,NAN,5.60000
10640,0x000E,1,FALSE,552.866,2.15640,0.18930,3.79040,NAN,NAN,5.70000
10690,0x000E,1,FALSE,555.515,2.16644,0.18930,3.78980,NAN,NAN,5.80000
10740,0x000E,1,FALSE,558.061,2.17609,0.18930,3.78920,NAN,NAN,5.90000
10790,0x000E,1,FALSE,560.659,2.18593,0.18930,3.78860,NAN,NAN,5.90000
10840,0x000E,1,FALSE,563.309,2.19597,0.18930,3.78790,NAN,NAN,5.50000
10890,0x000E,1,FALSE,565.853,2.20560,0.18930,3.78700,NAN,NAN,5.00000
10940,0x000E,1,FALSE,568.502,2.21563,0.18930,3.78600,NAN,NAN,5.20000
10990,0x000E,1,FALSE,571.047,2.22527,0.18930,3.78520,NAN,NAN,5.40000
11040,0x000E,1,FALSE,573.696,2.23529,0.18930,3.78440,NAN,NAN,5.40000
11090,0x000E,1,FALSE,576.24,2.24492,0.18930,3.78370,NAN,NAN,5.50000
11140,0x000E,1,FALSE,578.836,2.25474,0.18930,3.78290,NAN,NAN,5.40000
11190,0x000E,1,FALSE,581.485,2.26476,0.18930,3.78220,NAN,NAN,5.50000
11240,0x000E,1,FALSE,584.031,2.27439,0.18930,3.78150,NAN,NAN,5.50000
11290,0x000E,1,FALSE,586.68,2.28440,0.18930,3.78090,NAN,NAN,5.60000
11340,0x000E,1,FALSE,589.226,2.29402,0.18930,3.78040,NAN,NAN,5.70000
11390,0x000E,1,FALSE,591.876,2.30404,0.18930,3.77990,NAN,NAN,5.80000
11440,0x000E,1,FALSE,594.422,2.31367,0.18930,3.77940,NAN,NAN,5.90000
11490,0x000E,1,FALSE,597.073,2.32368,0.18930,3.77890,NAN,NAN,5.50000
11540,0x000E,1,FALSE,599.62,2.33330,0.18930,3.77810,NAN,NAN,5.00000
11590,0x000E,1,FALSE,602.218,2.34312,0.18930,3.77710,NAN,NAN,5.10000
11640,0x000E,1,FALSE,604.869,2.35313,0.18930,3.77640,NAN,NAN,5.30000
11690,0x000E,1,FALSE,607.415,2.36274,0.18930,3.77570,NAN,NAN,5.40000
11740,0x000E,1,FALSE,610.064,2.37274,0.18930,3.77510,NAN,NAN,5.50000
11790,0x000E,1,FALSE,612.61,2.38235,0.18930,3.77440,NAN,NAN,5.40000
11840,0x000E,1,FALSE,615.259,2.39235,0.18930,3.77380,NAN,NAN,5.40000
11890,0x000E,1,FALSE,617.804,2.40195,0.18930,3.77320,NAN,NAN,5.50000
11940,0x000E,1,FALSE,620.454,2.41195,0.18930,3.77270,NAN,NAN,5.60000
11990,0x000E,1,FALSE,623,2.42155,0.18930,3.77220,NAN,NAN,5.70000
12040,0x000E,1,FALSE,625.597,2.43135,0.18930,3.77180,NAN,NAN,5.80000
12090,0x000E,1,FALSE,628.247,2.44135,0.18930,3.77140,NAN,NAN,5.90000
12140,0x000E,1,FALSE,630.794,2.45095,0.18930,3.77100,NAN,NAN,5.70000
12190,0x000E,1,FALSE,633.444,2.46094,0.18930,3.77030,NAN,NAN,5.10000
12240,0x000E,1,FALSE,635.99,2.47054,0.18930,3.76940,NAN,NAN,5.00000
12290,0x000E,1,FALSE,638.639,2.48052,0.18930,3.76870,NAN,NAN,5.30000
12340,0x000E,1,FALSE,641.186,2.49012,0.18930,3.76820,NAN,NAN,5.40000
12390,0x000E,1,FALSE,643.836,2.50010,0.18930,3.76760,NAN,NAN,5.50000
12440,0x000E,1,FALSE,646.382,2.50969,0.18930,3.76700,NAN,NAN,5.40000
12490,0x000E,1,FALSE,648.981,2.51948,0.18930,3.76640,NAN,NAN,5.40000
12540,0x000E,1,FALSE,651.631,2.52946,0.18930,3.76590,NAN,NAN,5.50000
12590,0x000E,1,FALSE,654.177,2.53905,0.18930,3.76540,NAN,NAN,5.60000
12640,0x000E,1,FALSE,656.827,2.54903,0.18930,3.76500,NAN,NAN,5.70000
12690,0x000E,1,FALSE,659.373,2.55861,0.18930,3.76460,NAN,NAN,5.80000
12740,0x000E,1,FALSE,662.024,2.56859,0.18930,3.76430,NAN,NAN,5.90000
12790,0x000E,1,FALSE,664.571,2.57818,0.18930,3.76390,NAN,NAN,5.70000
12840,0x000E,1,FALSE,667.222,2.58815,0.18930,3.76330,NAN,NAN,5.10000
12890,0x000E,1,FALSE,669.768,2.59773,0.18930,3.76250,NAN,NAN,5.00000
12940,0x000E,1,FALSE,672.367,2.60751,0.18930,3.76190,NAN,NAN,5.30000
12990,0x000E,1,FALSE,675.018,2.61748,0.18930,3.76130,NAN,NAN,5.40000
13040,0x000E,1,FALSE,677.565,2.62706,0.18930,3.76080,NAN,NAN,5.50000
13090,0x000E,1,FALSE,680.215,2.63702,0.18930,3.76020,NAN,NAN,5.30000
13140,0x000E,1,FALSE,682.76,2.64659,0.18930,3.75970,NAN,NAN,5.40000
13190,0x000E,1,FALSE,685.41,2.65655,0.18930,3.75920,NAN,NAN,5.50000
13240,0x000E,1,FALSE,687.956,2.66612,0.18930,3.75880,NAN,NAN,5.60000
13290,0x000E,1,FALSE,690.553,2.67588,0.18930,3.75840,NAN,NAN,5.70000
13340,0x000E,1,FALSE,693.202,2.68584,0.18930,3.75810,NAN,NAN,5.80000
13390,0x000E,1,FALSE,695.748,2.69541,0.18930,3.75780,NAN,NAN,5.90000
13440,0x000E,1,FALSE,698.399,2.70537,0.18930,3.75750,NAN,NAN,5.80000
13490,0x000E,1,FALSE,700.945,2.71493,0.18930,3.75700,NAN,NAN,5.30000
13540,0x000E,1,FALSE,703.596,2.72489,0.18930,3.75630,NAN,NAN,4.90000
13590,0x000E,1,FALSE,706.142,2.73445,0.18930,3.75560,NAN,NAN,5.20000
13640,0x000E,1,FALSE,708.792,2.74441,0.18930,3.75510,NAN,NAN,5.40000
13690,0x000E,1,FALSE,711.339,2.75397,0.18930,3.75460,NAN,NAN,5.40000
13740,0x000E,1,FALSE,713.937,2.76372,0.18930,3.75410,NAN,NAN,5.40000
13790,0x000E,1,FALSE,716.587,2.77367,0.18930,3.75360,NAN,NAN,5.40000
13840,0x000E,1,FALSE,719.133,2.78322,0.18930,3.75310,NAN,NAN,5.50000
13890,0x000E,1,FALSE,721.783,2.79317,0.18930,3.75270,NAN,NAN,5.60000
13940,0x000E,1,FALSE,724.33,2.80272,0.18930,3.75240,NAN,NAN,5.70000
13990,0x000E,1,FALSE,726.98,2.81267,0.18930,3.75210,NAN,NAN,5.80000
14040,0x000E,1,FALSE,729.527,2.82222,0.18930,3.75180,NAN,NAN,5.90000
14090,0x000E,1,FALSE,732.178,2.83217,0.18930,3.75160,NAN,NAN,5.90000
14140,0x000E,1,FALSE,734.725,2.84172,0.18930,3.75120,NAN,NAN,5.40000
14190,0x000E,1,FALSE,737.323,2.85147,0.18930,3.75050,NAN,NAN,4.90000
14240,0x000E,1,FALSE,739.974,2.86141,0.18930,3.74990,NAN,NAN,5.20000
14290,0x000E,1,FALSE,742.521,2.87096,0.18930,3.74930,NAN,NAN,5.30000
14340,0x000E,1,FALSE,745.172,2.88089,0.18930,3.74890,NAN,NAN,5.40000
14390,0x000E,1,FALSE,747.719,2.89044,0.18930,3.74840,NAN,NAN,5.40000
14440,0x000E,1,FALSE,750.37,2.90038,0.18930,3.74790,NAN,NAN,5.40000
14490,0x000E,1,FALSE,752.917,2.90992,0.18930,3.74750,NAN,NAN,5.50000
14540,0x000E,1,FALSE,755.568,2.91986,0.18930,3.74710,NAN,NAN,5.60000
14590,0x000E,1,FALSE,758.116,2.92940,0.18930,3.74680,NAN,NAN,5.70000
14640,0x000E,1,FALSE,760.716,2.93914,0.18930,3.74660,NAN,NAN,5.80000
14690,0x000E,1,FALSE,763.368,2.94908,0.18930,3.74630,NAN,NAN,5.90000
14740,0x000E,1,FALSE,765.916,2.95862,0.18930,3.74610,NAN,NAN,5.90000
14790,0x000E,1,FALSE,768.568,2.96855,0.18930,3.74580,NAN,NAN,5.40000
14840,0x000E,1,FALSE,771.116,2.97810,0.18930,3.74510,NAN,NAN,4.90000
14890,0x000E,1,FALSE,773.767,2.98802,0.18930,3.74450,NAN,NAN,5.20000
14940,0x000E,1,FALSE,776.313,2.99756,0.18930,3.74400,NAN,NAN,5.30000
14990,0x000E,1,FALSE,778.964,3.00748,0.18930,3.74360,NAN,NAN,5.40000
15040,0x000E,1,FALSE,781.51,3.01701,0.18930,3.74320,NAN,NAN,5.40000
15090,0x000E,1,FALSE,784.107,3.02673,0.18930,3.74280,NAN,NAN,5.40000
15140,0x000E,1,FALSE,786.758,3.03665,0.18930,3.74230,NAN,NAN,5.40000
15190,0x000E,1,FALSE,789.304,3.04618,0.18930,3.74190,NAN,NAN,5.50000
15240,0x000E,1,FALSE,791.954,3.05609,0.18930,3.74170,NAN,NAN,5.60000
15290,0x000E,1,FALSE,794.5,3.06562,0.18930,3.74150,NAN,NAN,5.80000
15340,0x000E,1,FALSE,797.15,3.07553,0.18930,3.74120,NAN,NAN,5.90000
15390,0x000E,1,FALSE,799.698,3.08506,0.18930,3.74110,NAN,NAN,5.90000
15440,0x000E,1,FALSE,802.297,3.09479,0.18930,3.74080,NAN,NAN,5.40000
15490,0x000E,1,FALSE,804.948,3.10470,0.18930,3.74020,NAN,NAN,5.00000
15540,0x000E,1,FALSE,807.494,3.11422,0.18930,3.73960,NAN,NAN,5.10000
15590,0x000E,1,FALSE,810.145,3.12413,0.18930,3.73910,NAN,NAN,5.30000
15640,0x000E,1,FALSE,812.691,3.13365,0.18930,3.73870,NAN,NAN,5.40000
15690,0x000E,1,FALSE,815.341,3.14356,0.18930,3.73830,NAN,NAN,5.40000
15740,0x000E,1,FALSE,817.888,3.15308,0.18930,3.73790,NAN,NAN,5.40000
15790,0x000E,1,FALSE,820.538,3.16299,0.18930,3.73760,NAN,NAN,5.50000
15840,0x000E,1,FALSE,823.085,3.17250,0.18930,3.73720,NAN,NAN,5.50000
15890,0x000E,1,FALSE,825.684,3.18221,0.18930,3.73700,NAN,NAN,5.60000
15940,0x000E,1,FALSE,828.335,3.19212,0.18930,3.73670,NAN,NAN,5.70000
15990,0x000E,1,FALSE,830.883,3.20164,0.18930,3.73660,NAN,NAN,5.80000
16040,0x000E,1,FALSE,833.535,3.21155,0.18930,3.73650,NAN,NAN,5.90000
16090,0x000E,1,FALSE,836.082,3.22106,0.18930,3.73620,NAN,NAN,5.60000
16140,0x000E,1,FALSE,838.732,3.23096,0.18930,3.73570,NAN,NAN,5.10000
16190,0x000E,1,FALSE,841.279,3.24048,0.18930,3.73520,NAN,NAN,5.10000
16240,0x000E,1,FALSE,843.929,3.25037,0.18930,3.73470,NAN,NAN,5.30000
16290,0x000E,1,FALSE,846.476,3.25988,0.18930,3.73430,NAN,NAN,5.40000
16340,0x000E,1,FALSE,849.075,3.26959,0.18930,3.73400,NAN,NAN,5.50000
16390,0x000E,1,FALSE,851.726,3.27949,0.18930,3.73360,NAN,NAN,5.40000
16440,0x000E,1,FALSE,854.274,3.28900,0.18930,3.73330,NAN,NAN,5.40000
16490,0x000E,1,FALSE,856.925,3.29889,0.18930,3.73300,NAN,NAN,5.50000
16540,0x000E,1,FALSE,859.473,3.30840,0.18930,3.73270,NAN,NAN,5.60000
16590,0x000E,1,FALSE,862.123,3.31830,0.18930,3.73250,NAN,NAN,5.70000
16640,0x000E,1,FALSE,864.67,3.32780,0.18930,3.73240,NAN,NAN,5.80000
16690,0x000E,1,FALSE,867.32,3.33769,0.18930,3.73230,NAN,NAN,5.90000
16740,0x000E,1,FALSE,869.865,3.34719,0.18930,3.73210,NAN,NAN,5.70000
16790,0x000E,1,FALSE,872.463,3.35689,0.18930,3.73170,NAN,NAN,5.20000
16840,0x000E,1,FALSE,875.114,3.36678,0.18930,3.73120,NAN,NAN,5.10000
16890,0x000E,1,FALSE,877.66,3.37628,0.18930,3.73070,NAN,NAN,5.30000
16940,0x000E,1,FALSE,880.311,3.38616,0.18930,3.73040,NAN,NAN,5.40000
16990,0x000E,1,FALSE,882.857,3.39566,0.18930,3.73010,NAN,NAN,5.50000
17040,0x000E,1,FALSE,885.507,3.40555,0.18930,3.72980,NAN,NAN,5.40000
17090,0x000E,1,FALSE,888.054,3.41504,0.18930,3.72950,NAN,NAN,5.40000
17140,0x000E,1,FALSE,890.705,3.42493,0.18930,3.72920,NAN,NAN,5.50000
17190,0x000E,1,FALSE,893.251,3.43442,0.18930,3.72900,NAN,NAN,5.60000
17240,0x000E,1,FALSE,895.849,3.44411,0.18930,3.72880,NAN,NAN,5.70000
17290,0x000E,1,FALSE,898.5,3.45399,0.18930,3.72870,NAN,NAN,5.80000
17340,0x000E,1,FALSE,901.047,3.46349,0.18930,3.72860,NAN,NAN,5.90000
17390,0x000E,1,FALSE,903.697,3.47337,0.18930,3.72850,NAN,NAN,5.80000
17440,0x000E,1,FALSE,906.244,3.48287,0.18930,3.72820,NAN,NAN,5.30000
17490,0x000E,1,FALSE,908.894,3.49274,0.18930,3.72760,NAN,NAN,5.00000
17540,0x000E,1,FALSE,911.441,3.50224,0.18930,3.72720,NAN,NAN,5.30000
17590,0x000E,1,FALSE,914.091,3.51211,0.18930,3.72690,NAN,NAN,5.40000
17640,0x000E,1,FALSE,916.69,3.52180,0.18930,3.72660,NAN,NAN,5.50000
17690,0x000E,1,FALSE,919.237,3.53129,0.18930,3.72630,NAN,NAN,5.50000
17740,0x000E,1,FALSE,921.887,3.54116,0.18930,3.72600,NAN,NAN,5.40000
17790,0x000E,1,FALSE,924.434,3.55065,0.18930,3.72580,NAN,NAN,5.50000
17840,0x000E,1,FALSE,927.085,3.56053,0.18930,3.72550,NAN,NAN,5.60000
17890,0x000E,1,FALSE,929.632,3.57001,0.18930,3.72540,NAN,NAN,5.70000
17940,0x000E,1,FALSE,932.283,3.57989,0.18930,3.72530,NAN,NAN,5.80000
17990,0x000E,1,FALSE,934.829,3.58938,0.18930,3.72520,NAN,NAN,5.90000
18040,0x000E,1,FALSE,937.428,3.59906,0.18930,3.72520,NAN,NAN,6.00000
18090,0x000E,1,FALSE,940.079,3.60893,0.18930,3.72490,NAN,NAN,5.40000
18140,0x000E,1,FALSE,942.625,3.61841,0.18930,3.72440,NAN,NAN,5.00000
18190,0x000E,1,FALSE,945.276,3.62829,0.18930,3.72400,NAN,NAN,5.30000
18240,0x000E,1,FALSE,947.823,3.63777,0.18930,3.72370,NAN,NAN,5.40000
18290,0x000E,1,FALSE,950.474,3.64764,0.18930,3.72340,NAN,NAN,5.50000
18340,0x000E,1,FALSE,953.021,3.65712,0.18930,3.72310,NAN,NAN,5.50000
18390,0x000E,1,FALSE,955.673,3.66699,0.18930,3.72280,NAN,NAN,5.50000
18440,0x000E,1,FALSE,958.22,3.67647,0.18930,3.72250,NAN,NAN,5.50000
18490,0x000E,1,FALSE,960.818,3.68615,0.18930,3.72230,NAN,NAN,5.60000
18540,0x000E,1,FALSE,963.469,3.69601,0.18930,3.72220,NAN,NAN,5.70000
18590,0x000E,1,FALSE,966.015,3.70549,0.18930,3.72210,NAN,NAN,5.80000
18640,0x000E,1,FALSE,968.666,3.71535,0.18930,3.72200,NAN,NAN,5.90000
18690,0x000E,1,FALSE,971.212,3.72483,0.18930,3.72190,NAN,NAN,6.00000
18740,0x000E,1,FALSE,973.863,3.73469,0.18930,3.72170,NAN,NAN,5.60000
18790,0x000E,1,FALSE,976.41,3.74417,0.18930,3.72130,NAN,NAN,5.10000
18840,0x000E,1,FALSE,979.061,3.75404,0.18930,3.72080,NAN,NAN,5.20000
18890,0x000E,1,FALSE,981.608,3.76351,0.18930,3.72050,NAN,NAN,5.40000
18940,0x000E,1,FALSE,984.207,3.77318,0.18930,3.72020,NAN,NAN,5.50000
18990,0x000E,1,FALSE,986.859,3.78305,0.18930,3.71990,NAN,NAN,5.50000
19040,0x000E,1,FALSE,989.407,3.79252,0.18930,3.71960,NAN,NAN,5.40000
19090,0x000E,1,FALSE,992.059,3.80239,0.18930,3.71930,NAN,NAN,5.50000
19140,0x000E,1,FALSE,994.607,3.81186,0.18930,3.71900,NAN,NAN,5.60000
19190,0x000E,1,FALSE,997.259,3.82172,0.18930,3.71880,NAN,NAN,5.70000
19240,0x000E,1,FALSE,999.806,3.83120,0.18930,3.71870,NAN,NAN,5.80000
19290,0x000E,1,FALSE,1002.46,3.84105,0.18930,3.71860,NAN,NAN,5.90000
19340,0x000E,1,FALSE,1005,3.85052,0.18930,3.71850,NAN,NAN,6.00000
19390,0x000E,1,FALSE,1007.6,3.86019,0.18930,3.71850,NAN,NAN,5.90000
19440,0x000E,1,FALSE,1010.25,3.87004,0.18930,3.71820,NAN,NAN,5.40000
19490,0x000E,1,FALSE,1012.8,3.87951,0.18930,3.71770,NAN,NAN,5.00000
19540,0x000E,1,FALSE,1015.45,3.88937,0.18930,3.71720,NAN,NAN,5.30000
19590,0x000E,1,FALSE,1018,3.89884,0.18930,3.71690,NAN,NAN,5.50000
19640,0x000E,1,FALSE,1020.65,3.90869,0.18930,3.71660,NAN,NAN,5.60000
19690,0x000E,1,FALSE,1023.2,3.91815,0.18930,3.71620,NAN,NAN,5.50000
19740,0x000E,1,FALSE,1025.85,3.92800,0.18930,3.71590,NAN,NAN,5.50000
19790,0x000E,1,FALSE,1028.39,3.93746,0.18930,3.71560,NAN,NAN,5.50000
19840,0x000E,1,FALSE,1030.99,3.94712,0.18930,3.71540,NAN,NAN,5.60000
19890,0x000E,1,FALSE,1033.64,3.95696,0.18930,3.71510,NAN,NAN,5.70000
19940,0x000E,1,FALSE,1036.19,3.96642,0.18930,3.71500,NAN,NAN,5.80000
19990,0x000E,1,FALSE,1038.84,3.97627,0.18930,3.71490,NAN,NAN,5.90000
20040,0x000E,1,FALSE,1041.39,3.98573,0.18930,3.71480,NAN,NAN,6.10000
20090,0x000E,1,FALSE,1044.04,3.99558,0.18930,3.71460,NAN,NAN,5.70000
20140,0x000E,1,FALSE,1046.59,4.00504,0.18930,3.71420,NAN,NAN,5.20000
20190,0x000E,1,FALSE,1049.19,4.01469,0.18930,3.71360,NAN,NAN,5.20000
20240,0x000E,1,FALSE,1051.84,4.02453,0.18930,3.71320,NAN,NAN,5.40000
20290,0x000E,1,FALSE,1054.38,4.03399,0.18930,3.71290,NAN,NAN,5.50000
20340,0x000E,1,FALSE,1057.03,4.04383,0.18930,3.71250,NAN,NAN,5.60000
20390,0x000E,1,FALSE,1059.58,4.05328,0.18930,3.71220,NAN,NAN,5.50000
20440,0x000E,1,FALSE,1062.23,4.06312,0.18930,3.71180,NAN,NAN,5.50000
20490,0x000E,1,FALSE,1064.78,4.07257,0.18930,3.71150,NAN,NAN,5.60000
20540,0x000E,1,FALSE,1067.43,4.08241,0.18930,3.71120,NAN,NAN,5.70000
20590,0x000E,1,FALSE,1069.97,4.09186,0.18930,3.71100,NAN,NAN,5.80000
20640,0x000E,1,FALSE,1072.57,4.10150,0.18930,3.71080,NAN,NAN,5.90000
20690,0x000E,1,FALSE,1075.22,4.11134,0.18930,3.71070,NAN,NAN,6.00000
20740,0x000E,1,FALSE,1077.77,4.12078,0.18930,3.71050,NAN,NAN,6.00000
20790,0x000E,1,FALSE,1080.42,4.13061,0.18930,3.71020,NAN,NAN,5.50000
20840,0x000E,1,FALSE,1082.96,4.14006,0.18930,3.70960,NAN,NAN,5.00000
20890,0x000E,1,FALSE,1085.61,4.14988,0.18930,3.70910,NAN,NAN,5.30000
20940,0x000E,1,FALSE,1088.16,4.15932,0.18930,3.70860,NAN,NAN,5.50000
20990,0x000E,1,FALSE,1090.81,4.16915,0.18930,3.70820,NAN,NAN,5.60000
21040,0x000E,1,FALSE,1093.36,4.17859,0.18930,3.70790,NAN,NAN,5.50000
21090,0x000E,1,FALSE,1095.95,4.18822,0.18930,3.70740,NAN,NAN,5.50000
21140,0x000E,1,FALSE,1098.6,4.19805,0.18930,3.70700,NAN,NAN,5.50000
21190,0x000E,1,FALSE,1101.15,4.20749,0.18930,3.70660,NAN,NAN,5.60000
21240,0x000E,1,FALSE,1103.8,4.21731,0.18930,3.70630,NAN,NAN,5.70000
21290,0x000E,1,FALSE,1106.35,4.22675,0.18930,3.70610,NAN,NAN,5.80000
21340,0x000E,1,FALSE,1109,4.23658,0.18930,3.70590,NAN,NAN,5.90000
21390,0x000E,1,FALSE,1111.55,4.24601,0.18930,3.70570,NAN,NAN,6.10000
21440,0x000E,1,FALSE,1114.2,4.25583,0.18930,3.70540,NAN,NAN,5.80000
21490,0x000E,1,FALSE,1116.74,4.26527,0.18930,3.70490,NAN,NAN,5.30000
21540,0x000E,1,FALSE,1119.34,4.27489,0.18930,3.70420,NAN,NAN,5.20000
21590,0x000E,1,FALSE,1121.99,4.28471,0.18930,3.70360,NAN,NAN,5.40000
21640,0x000E,1,FALSE,1124.54,4.29414,0.18930,3.70320,NAN,NAN,5.60000
21690,0x000E,1,FALSE,1127.19,4.30395,0.18930,3.70280,NAN,NAN,5.70000
21740,0x000E,1,FALSE,1129.74,4.31338,0.18930,3.70230,NAN,NAN,5.50000
21790,0x000E,1,FALSE,1132.39,4.32319,0.18930,3.70180,NAN,NAN,5.50000
21840,0x000E,1,FALSE,1134.93,4.33262,0.18930,3.70130,NAN,NAN,5.60000
21890,0x000E,1,FALSE,1137.59,4.34243,0.18930,3.70090,NAN,NAN,5.70000
21940,0x000E,1,FALSE,1140.13,4.35186,0.18930,3.70050,NAN,NAN,5.80000
21990,0x000E,1,FALSE,1142.73,4.36147,0.18930,3.70020,NAN,NAN,5.90000
22040,0x000E,1,FALSE,1145.38,4.37128,0.18930,3.69990,NAN,NAN,6.00000
22090,0x000E,1,FALSE,1147.93,4.38070,0.18930,3.69970,NAN,NAN,6.00000
22140,0x000E,1,FALSE,1150.58,4.39051,0.18930,3.69920,NAN,NAN,5.60000
22190,0x000E,1,FALSE,1153.13,4.39993,0.18930,3.69860,NAN,NAN,5.10000
22240,0x000E,1,FALSE,1155.78,4.40972,0.18930,3.69780,NAN,NAN,5.30000
22290,0x000E,1,FALSE,1158.32,4.41913,0.18930,3.69720,NAN,NAN,5.50000
22340,0x000E,1,FALSE,1160.92,4.42874,0.18930,3.69670,NAN,NAN,5.60000
22390,0x000E,1,FALSE,1163.57,4.43853,0.18930,3.69620,NAN,NAN,5.60000
22440,0x000E,1,FALSE,1166.11,4.44794,0.18930,3.69560,NAN,NAN,5.60000
22490,0x000E,1,FALSE,1168.76,4.45774,0.18930,3.69500,NAN,NAN,5.60000
22540,0x000E,1,FALSE,1171.31,4.46714,0.18930,3.69450,NAN,NAN,5.70000
22590,0x000E,1,FALSE,1173.96,4.47693,0.18930,3.69410,NAN,NAN,5.80000
22640,0x000E,1,FALSE,1176.51,4.48633,0.18930,3.69360,NAN,NAN,5.90000
22690,0x000E,1,FALSE,1179.16,4.49612,0.18930,3.69320,NAN,NAN,6.00000
22740,0x000E,1,FALSE,1181.7,4.50551,0.18930,3.69290,NAN,NAN,6.10000
22790,0x000E,1,FALSE,1184.3,4.51510,0.18930,3.69240,NAN,NAN,5.70000
22840,0x000E,1,FALSE,1186.95,4.52489,0.18930,3.69160,NAN,NAN,5.20000
22890,0x000E,1,FALSE,1189.49,4.53429,0.18930,3.69080,NAN,NAN,5.30000
22940,0x000E,1,FALSE,1192.14,4.54407,0.18930,3.69000,NAN,NAN,5.50000
22990,0x000E,1,FALSE,1194.69,4.55346,0.18930,3.68940,NAN,NAN,5.70000
23040,0x000E,1,FALSE,1197.34,4.56323,0.18930,3.68870,NAN,NAN,5.70000
23090,0x000E,1,FALSE,1199.89,4.57262,0.18930,3.68800,NAN,NAN,5.60000
23140,0x000E,1,FALSE,1202.54,4.58239,0.18930,3.68730,NAN,NAN,5.60000
23190,0x000E,1,FALSE,1205.08,4.59178,0.18930,3.68670,NAN,NAN,5.70000
23240,0x000E,1,FALSE,1207.68,4.60135,0.18930,3.68600,NAN,NAN,5.80000
23290,0x000E,1,FALSE,1210.33,4.61112,0.18930,3.68550,NAN,NAN,5.90000
23340,0x000E,1,FALSE,1212.87,4.62050,0.18930,3.68500,NAN,NAN,6.00000
23390,0x000E,1,FALSE,1215.52,4.63026,0.18930,3.68450,NAN,NAN,6.10000
23440,0x000E,1,FALSE,1218.07,4.63964,0.18930,3.68390,NAN,NAN,6.00000
23490,0x000E,1,FALSE,1220.72,4.64940,0.18930,3.68310,NAN,NAN,5.40000
23540,0x000E,1,FALSE,1223.27,4.65877,0.18930,3.68210,NAN,NAN,5.20000
23590,0x000E,1,FALSE,1225.91,4.66853,0.18930,3.68120,NAN,NAN,5.50000
23640,0x000E,1,FALSE,1228.46,4.67790,0.18930,3.68040,NAN,NAN,5.60000
23690,0x000E,1,FALSE,1231.06,4.68746,0.18930,3.67960,NAN,NAN,5.70000
23740,0x000E,1,FALSE,1233.71,4.69721,0.18930,3.67870,NAN,NAN,5.60000
23790,0x000E,1,FALSE,1236.25,4.70657,0.18930,3.67790,NAN,NAN,5.60000
23840,0x000E,1,FALSE,1238.9,4.71631,0.18930,3.67700,NAN,NAN,5.70000
23890,0x000E,1,FALSE,1241.45,4.72567,0.18930,3.67620,NAN,NAN,5.80000
23940,0x000E,1,FALSE,1244.1,4.73541,0.18930,3.67550,NAN,NAN,5.90000
23990,0x000E,1,FALSE,1246.65,4.74477,0.18930,3.67480,NAN,NAN,6.00000
24040,0x000E,1,FALSE,1249.3,4.75451,0.18930,3.67410,NAN,NAN,6.10000
24090,0x000E,1,FALSE,1251.84,4.76386,0.18930,3.67340,NAN,NAN,6.10000
24140,0x000E,1,FALSE,1254.44,4.77341,0.18930,3.67250,NAN,NAN,5.70000
24190,0x000E,1,FALSE,1257.09,4.78314,0.18930,3.67140,NAN,NAN,5.20000
24240,0x000E,1,FALSE,1259.64,4.79248,0.18930,3.67020,NAN,NAN,5.40000
24290,0x000E,1,FALSE,1262.29,4.80221,0.18930,3.66910,NAN,NAN,5.60000
24340,0x000E,1,FALSE,1264.83,4.81155,0.18930,3.66810,NAN,NAN,5.70000
24390,0x000E,1,FALSE,1267.49,4.82127,0.18930,3.66720,NAN,NAN,5.70000
24440,0x000E,1,FALSE,1270.03,4.83061,0.18930,3.66610,NAN,NAN,5.60000
24490,0x000E,1,FALSE,1272.63,4.84013,0.18930,3.66500,NAN,NAN,5.70000
24540,0x000E,1,FALSE,1275.28,4.84984,0.18930,3.66400,NAN,NAN,5.70000
24590,0x000E,1,FALSE,1277.83,4.85917,0.18930,3.66300,NAN,NAN,5.80000
24640,0x000E,1,FALSE,1280.48,4.86888,0.18930,3.66200,NAN,NAN,5.90000
24690,0x000E,1,FALSE,1283.02,4.87820,0.18930,3.66110,NAN,NAN,6.00000
24740,0x000E,1,FALSE,1285.67,4.88790,0.18930,3.66030,NAN,NAN,6.10000
24790,0x000E,1,FALSE,1288.22,4.89722,0.18930,3.65950,NAN,NAN,6.10000
24840,0x000E,1,FALSE,1290.87,4.90692,0.18930,3.65830,NAN,NAN,5.60000
24890,0x000E,1,FALSE,1293.42,4.91623,0.18930,3.65690,NAN,NAN,5.20000
24940,0x000E,1,FALSE,1296.02,4.92573,0.18930,3.65560,NAN,NAN,5.50000
24990,0x000E,1,FALSE,1298.67,4.93542,0.18930,3.65440,NAN,NAN,5.70000
25040,0x000E,1,FALSE,1301.21,4.94472,0.18930,3.65320,NAN,NAN,5.80000
25090,0x000E,1,FALSE,1303.86,4.95440,0.18930,3.65200,NAN,NAN,5.70000
25140,0x000E,1,FALSE,1306.41,4.96370,0.18930,3.65070,NAN,NAN,5.70000
25190,0x000E,1,FALSE,1309.06,4.97337,0.18930,3.64950,NAN,NAN,5.70000
25240,0x000E,1,FALSE,1311.61,4.98267,0.18930,3.64820,NAN,NAN,5.80000
25290,0x000E,1,FALSE,1314.26,4.99233,0.18930,3.64700,NAN,NAN,5.90000
25340,0x000E,1,FALSE,1316.8,5.00162,0.18930,3.64590,NAN,NAN,6.00000
25390,0x000E,1,FALSE,1319.4,5.01109,0.18930,3.64480,NAN,NAN,6.10000
25440,0x000E,1,FALSE,1322.05,5.02075,0.18930,3.64370,NAN,NAN,6.20000
25490,0x000E,1,FALSE,1324.6,5.03003,0.18930,3.64250,NAN,NAN,5.90000
25540,0x000E,1,FALSE,1327.25,5.03968,0.18930,3.64090,NAN,NAN,5.40000
25590,0x000E,1,FALSE,1329.8,5.04895,0.18930,3.63920,NAN,NAN,5.30000
25640,0x000E,1,FALSE,1332.45,5.05859,0.18930,3.63750,NAN,NAN,5.60000
25690,0x000E,1,FALSE,1334.99,5.06785,0.18930,3.63610,NAN,NAN,5.70000
25740,0x000E,1,FALSE,1337.64,5.07748,0.18930,3.63470,NAN,NAN,5.80000
25790,0x000E,1,FALSE,1340.19,5.08673,0.18930,3.63320,NAN,NAN,5.70000
25840,0x000E,1,FALSE,1342.79,5.09617,0.18930,3.63180,NAN,NAN,5.70000
25890,0x000E,1,FALSE,1345.44,5.10579,0.18930,3.63040,NAN,NAN,5.70000
25940,0x000E,1,FALSE,1347.98,5.11503,0.18930,3.62920,NAN,NAN,5.80000
25990,0x000E,1,FALSE,1350.63,5.12464,0.18930,3.62800,NAN,NAN,5.90000
26040,0x000E,1,FALSE,1353.18,5.13388,0.18930,3.62700,NAN,NAN,6.00000
26090,0x000E,1,FALSE,1355.83,5.14349,0.18930,3.62610,NAN,NAN,6.20000
26140,0x000E,1,FALSE,1358.38,5.15272,0.18930,3.62530,NAN,NAN,6.10000
26190,0x000E,1,FALSE,1361.03,5.16232,0.18930,3.62430,NAN,NAN,5.70000
26240,0x000E,1,FALSE,1363.57,5.17155,0.18930,3.62310,NAN,NAN,5.20000
26290,0x000E,1,FALSE,1366.17,5.18096,0.18930,3.62180,NAN,NAN,5.50000
26340,0x000E,1,FALSE,1368.82,5.19056,0.18930,3.62090,NAN,NAN,5.70000
26390,0x000E,1,FALSE,1371.37,5.19977,0.18930,3.62000,NAN,NAN,5.80000
26440,0x000E,1,FALSE,1374.02,5.20937,0.18930,3.61920,NAN,NAN,5.70000
26490,0x000E,1,FALSE,1376.56,5.21858,0.18930,3.61830,NAN,NAN,5.70000
26540,0x000E,1,FALSE,1379.21,5.22817,0.18930,3.61750,NAN,NAN,5.70000
26590,0x000E,1,FALSE,1381.76,5.23738,0.18930,3.61680,NAN,NAN,5.80000
26640,0x000E,1,FALSE,1384.41,5.24696,0.18930,3.61610,NAN,NAN,5.90000
26690,0x000E,1,FALSE,1386.96,5.25617,0.18930,3.61550,NAN,NAN,6.00000
26740,0x000E,1,FALSE,1389.56,5.26556,0.18930,3.61500,NAN,NAN,6.10000
26790,0x000E,1,FALSE,1392.21,5.27515,0.18930,3.61450,NAN,NAN,6.20000
26840,0x000E,1,FALSE,1394.75,5.28435,0.18930,3.61410,NAN,NAN,6.10000
26890,0x000E,1,FALSE,1397.4,5.29392,0.18930,3.61330,NAN,NAN,5.60000
26940,0x000E,1,FALSE,1399.95,5.30312,0.18930,3.61210,NAN,NAN,5.20000
26990,0x000E,1,FALSE,1402.6,5.31269,0.18930,3.61110,NAN,NAN,5.50000
27040,0x000E,1,FALSE,1405.14,5.32188,0.18930,3.61030,NAN,NAN,5.70000
27090,0x000E,1,FALSE,1407.74,5.33126,0.18930,3.60950,NAN,NAN,5.80000
27140,0x000E,1,FALSE,1410.39,5.34082,0.18930,3.60870,NAN,NAN,5.70000
27190,0x000E,1,FALSE,1412.94,5.35000,0.18930,3.60780,NAN,NAN,5.70000
27240,0x000E,1,FALSE,1415.59,5.35956,0.18930,3.60690,NAN,NAN,5.70000
27290,0x000E,1,FALSE,1418.13,5.36875,0.18930,3.60620,NAN,NAN,5.80000
27340,0x000E,1,FALSE,1420.78,5.37830,0.18930,3.60540,NAN,NAN,5.90000
27390,0x000E,1,FALSE,1423.33,5.38748,0.18930,3.60480,NAN,NAN,6.00000
27440,0x000E,1,FALSE,1425.98,5.39703,0.18930,3.60420,NAN,NAN,6.10000
27490,0x000E,1,FALSE,1428.53,5.40621,0.18930,3.60360,NAN,NAN,6.20000
27540,0x000E,1,FALSE,1431.13,5.41557,0.18930,3.60290,NAN,NAN,5.90000
27590,0x000E,1,FALSE,1433.78,5.42512,0.18930,3.60170,NAN,NAN,5.30000
27640,0x000E,1,FALSE,1436.32,5.43429,0.18930,3.60020,NAN,NAN,5.30000
27690,0x000E,1,FALSE,1438.97,5.44383,0.18930,3.59910,NAN,NAN,5.60000
27740,0x000E,1,FALSE,1441.52,5.45299,0.18930,3.59790,NAN,NAN,5.70000
27790,0x000E,1,FALSE,1444.17,5.46252,0.18930,3.59690,NAN,NAN,5.80000
27840,0x000E,1,FALSE,1446.71,5.47168,0.18930,3.59570,NAN,NAN,5.70000
27890,0x000E,1,FALSE,1449.37,5.48121,0.18930,3.59450,NAN,NAN,5.70000
27940,0x000E,1,FALSE,1451.91,5.49036,0.18930,3.59330,NAN,NAN,5.80000
27990,0x000E,1,FALSE,1454.51,5.49969,0.18930,3.59210,NAN,NAN,5.90000
28040,0x000E,1,FALSE,1457.16,5.50921,0.18930,3.59100,NAN,NAN,5.90000
28090,0x000E,1,FALSE,1459.71,5.51836,0.18930,3.59000,NAN,NAN,6.00000
28140,0x000E,1,FALSE,1462.36,5.52787,0.18930,3.58900,NAN,NAN,6.10000
28190,0x000E,1,FALSE,1464.9,5.53700,0.18930,3.58810,NAN,NAN,6.10000
28240,0x000E,1,FALSE,1467.55,5.54651,0.18930,3.58670,NAN,NAN,5.70000
28290,0x000E,1,FALSE,1470.1,5.55564,0.18930,3.58480,NAN,NAN,5.20000
28340,0x000E,1,FALSE,1472.75,5.56514,0.18930,3.58280,NAN,NAN,5.50000
28390,0x000E,1,FALSE,1475.3,5.57426,0.18930,3.58110,NAN,NAN,5.70000
28440,0x000E,1,FALSE,1477.9,5.58356,0.18930,3.57950,NAN,NAN,5.80000
28490,0x000E,1,FALSE,1480.55,5.59305,0.18930,3.57780,NAN,NAN,5.80000
28540,0x000E,1,FALSE,1483.09,5.60215,0.18930,3.57580,NAN,NAN,5.70000
28590,0x000E,1,FALSE,1485.74,5.61163,0.18930,3.57390,NAN,NAN,5.70000
28640,0x000E,1,FALSE,1488.29,5.62072,0.18930,3.57190,NAN,NAN,5.80000
28690,0x000E,1,FALSE,1490.94,5.63019,0.18930,3.57000,NAN,NAN,5.90000
28740,0x000E,1,FALSE,1493.49,5.63928,0.18930,3.56810,NAN,NAN,6.00000
28790,0x000E,1,FALSE,1496.14,5.64873,0.18930,3.56620,NAN,NAN,6.10000
28840,0x000E,1,FALSE,1498.68,5.65780,0.18930,3.56440,NAN,NAN,6.20000
28890,0x000E,1,FALSE,1501.28,5.66706,0.18930,3.56220,NAN,NAN,6.00000
28940,0x000E,1,FALSE,1503.93,5.67650,0.18930,3.55930,NAN,NAN,5.40000
28990,0x000E,1,FALSE,1506.48,5.68556,0.18930,3.55600,NAN,NAN,5.40000
29040,0x000E,1,FALSE,1509.13,5.69498,0.18930,3.55270,NAN,NAN,5.60000
29090,0x000E,1,FALSE,1511.68,5.70403,0.18930,3.54960,NAN,NAN,5.80000
29140,0x000E,1,FALSE,1514.33,5.71343,0.18930,3.54630,NAN,NAN,5.90000
29190,0x000E,1,FALSE,1516.87,5.72246,0.18930,3.54270,NAN,NAN,5.70000
29240,0x000E,1,FALSE,1519.47,5.73166,0.18930,3.53890,NAN,NAN,5.80000
29290,0x000E,1,FALSE,1522.12,5.74103,0.18930,3.53480,NAN,NAN,5.80000
29340,0x000E,1,FALSE,1524.67,5.75003,0.18930,3.53060,NAN,NAN,5.90000
29390,0x000E,1,FALSE,1527.32,5.75938,0.18930,3.52630,NAN,NAN,6.00000
29440,0x000E,1,FALSE,1529.87,5.76835,0.18930,3.52190,NAN,NAN,6.10000
29490,0x000E,1,FALSE,1532.52,5.77768,0.18930,3.51710,NAN,NAN,6.20000
29540,0x000E,1,FALSE,1535.06,5.78663,0.18930,3.51230,NAN,NAN,6.30000
29590,0x000E,1,FALSE,1537.72,5.79593,0.18930,3.50660,NAN,NAN,5.90000
29640,0x000E,1,FALSE,1540.26,5.80486,0.18930,3.49990,NAN,NAN,5.40000
29690,0x000E,1,FALSE,1542.86,5.81394,0.18930,3.49240,NAN,NAN,5.50000
29740,0x000E,1,FALSE,1545.51,5.82319,0.18930,3.48480,NAN,NAN,5.80000
29790,0x000E,1,FALSE,1548.06,5.83205,0.18930,3.47710,NAN,NAN,5.90000
29840,0x000E,1,FALSE,1550.71,5.84126,0.18930,3.46870,NAN,NAN,6.00000
29890,0x000E,1,FALSE,1553.26,5.85008,0.18930,3.45970,NAN,NAN,5.80000
29940,0x000E,1,FALSE,1555.91,5.85924,0.18930,3.44990,NAN,NAN,5.80000
29990,0x000E,1,FALSE,1558.45,5.86801,0.18930,3.43980,NAN,NAN,5.90000
30040,0x000E,1,FALSE,1561.1,5.87711,0.18930,3.42890,NAN,NAN,6.00000
30090,0x000E,1,FALSE,1563.65,5.88583,0.18930,3.41780,NAN,NAN,6.20000
30140,0x000E,1,FALSE,1566.25,5.89469,0.18930,3.40600,NAN,NAN,6.20000
30190,0x000E,1,FALSE,1568.9,5.90371,0.18930,3.39350,NAN,NAN,6.30000
30240,0x000E,1,FALSE,1571.45,5.91233,0.18930,3.38040,NAN,NAN,6.30000
30290,0x000E,1,FALSE,1574.1,5.92127,0.18930,3.36550,NAN,NAN,5.80000
30340,0x000E,1,FALSE,1576.64,5.92982,0.18930,3.34890,NAN,NAN,5.40000
30390,0x000E,1,FALSE,1579.29,5.93867,0.18930,3.33100,NAN,NAN,5.70000
30440,0x000E,1,FALSE,1581.84,5.94713,0.18930,3.31290,NAN,NAN,6.00000
30490,0x000E,1,FALSE,1584.49,5.95588,0.18930,3.29320,NAN,NAN,6.10000
30540,0x000E,1,FALSE,1587.04,5.96425,0.18930,3.27250,NAN,NAN,6.00000
30590,0x000E,1,FALSE,1589.64,5.97272,0.18930,3.24940,NAN,NAN,6.00000
30640,0x000E,1,FALSE,1592.29,5.98130,0.18930,3.22400,NAN,NAN,6.00000
30690,0x000E,1,FALSE,1594.83,5.98947,0.18930,3.19700,NAN,NAN,6.10000
30740,0x000E,1,FALSE,1597.48,5.99791,0.18930,3.16690,NAN,NAN,6.20000
30790,0x000E,1,FALSE,1600.03,6.00593,0.18930,3.13440,NAN,NAN,6.30000
30840,0x000E,1,FALSE,1602.68,6.01419,0.18930,3.09730,NAN,NAN,6.40000
30890,0x000E,1,FALSE,1605.23,6.02202,0.18930,3.05540,NAN,NAN,6.50000
30940,0x000E,1,FALSE,1607.88,6.03006,0.18930,3.00370,NAN,NAN,6.40000
30990,0x000E,1,FALSE,1610.43,6.03762,0.18930,2.93570,NAN,NAN,5.90000
31040,0x000E,1,FALSE,1613.02,6.04514,0.18930,2.84350,NAN,NAN,5.70000
31082,0x000E,1,FALSE,1615.21,4.34628,0.18940,2.74990,NAN,NAN,6.00000

[DISCHARGE RESULT]
LoRange,FALSE
FinishedBy,1(Cut Voltage)
OpenVolt[V],4.06350
OpenCurr[A],0.00010
OpenTemp[°C],5.20000
StartVolt[V],4.04460
StartCurr[A],0.18930
StartTemp[°C],5.20000
CutoffVolt[V],2.74990
CutoffCurr[A],0.18940
CutoffTemp[°C],6.00000
TimeElapsed[s],31082
Power[Wh],4.34628
StartPulseA[V],NAN
CurrPulseA[V],NAN
StartPulseB[V],NAN
CurrPulseB[V],NAN
TempSet[°C],OFF
TempMon[°C],OFF
HumidSet[%],OFF
HumidMon[%],OFF

[LIFE]
CycleNo,2
Action,Discharge
Start,2021/03/04,22:56:44
End,2021/03/05,7:34:49
Capacity[mAh],1138.62

[IMPEDANCE],AfterCharge,AfterRest
Range,0,0
AutoRange,FALSE,FALSE
Resistance[ohm],NAN,NAN
Reactance[ohm],NAN,NAN