File: csvFiles/20210227/temp0.CSV
[TEST CONDITION]
CondName,バッテリ温度特性試験20210227
ModelID,21
Average,0
CheckDut,FALSE
AutoFine,FALSE
DateTime,2021/02/27,21:40:39
Operator,米山まうむ
Notes,運用に向けてバッテリの温度特性を測定する
運用時の消費電流を鑑み，0.1C放電で行う
なおこんなに運用直前にやることではないので，次期プロジェクトの人間はもっと早い段階で行うことをお勧めする
BatteryName,UF103450P
NominalCapacity[mAh],1800.0
NominalVoltage[V],3.70000
Volume[ml],0.10
Weight[g],38.30
SoftOvp[V],4.40000
SoftUvp[V],2.50000
SoftOah[%],110
SoftOtp[°C],60.00000
DeltaT[s],10.00000
DeltaV[V],0.10000
DeltaI[A],0.10000
ImpRange[ohm],0
Frequency[Hz],1000
AutoRange,FALSE
AfterCharge,FALSE
AfterChargeRest,FALSE
AfterDischarge,FALSE
AfterDischargeRest,FALSE
CapacityRate_C[%],OFF
CapacityRate_D[%],OFF
Impedance_C[ohm],OFF
Impedance_D[ohm],OFF
SeqInfoName,

[CHARGE SHEET]
SheetNo,2
Range,HIGH
Mode,CC-CV
ChargeTime[s],0
RestTime[s],0
Current[A],0.00000
CvVolt[V],0.00000
CvTime[s],0
ItCurrent[A],OFF
ItTime[s],OFF

[DISCHARGE SHEET]
SheetNo,2
Range,HIGH
Mode,CC
DischargeTime[s],43200
RestTime[s],0
Current[A],0.18800
CapacityVolt[V],3.70000
CutoffVolt[V],2.75000

[DISCHARGE MONITOR]
TimeElapsed[s],StdState,OpnState,LowRange,Capacity[mAh],Power[Wh],Curr[A],Volt[V],VoltHi[V],VoltLo[V],Temp[°C],TermState,CellVolt[V],CellVoltHi[V],CellVoltLo[V],CellTemp[°C],(continued)
0,0x000E,0,FALSE,0.00000,0.00000,0.00000,4.04920,NAN,NAN,-0.30000
40,0x000E,1,FALSE,2.02439,0.00809,0.18930,3.99150,NAN,NAN,-0.20000
90,0x000E,1,FALSE,4.67189,0.01865,0.18930,3.98460,NAN,NAN,-0.20000
140,0x000E,1,FALSE,7.21525,0.02877,0.18930,3.98010,NAN,NAN,0.00000
190,0x000E,1,FALSE,9.86211,0.03930,0.18930,3.97680,NAN,NAN,0.10000
240,0x000E,1,FALSE,12.40536,0.04941,0.18930,3.97430,NAN,NAN,0.30000
290,0x000E,1,FALSE,15.05311,0.05993,0.18930,3.97220,NAN,NAN,0.40000
340,0x000E,1,FALSE,17.59681,0.07003,0.18930,3.97030,NAN,NAN,0.10000
390,0x000E,1,FALSE,20.19230,0.08033,0.18930,3.96800,NAN,NAN,-0.70000
440,0x000E,1,FALSE,22.83969,0.09083,0.18930,3.96560,NAN,NAN,-0.50000
490,0x000E,1,FALSE,25.38295,0.10092,0.18930,3.96360,NAN,NAN,-0.30000
540,0x000E,1,FALSE,28.02975,0.11140,0.18930,3.96180,NAN,NAN,0.00000
590,0x000E,1,FALSE,30.57297,0.12148,0.18940,3.96020,NAN,NAN,0.00000
640,0x000E,1,FALSE,33.22050,0.13196,0.18930,3.95840,NAN,NAN,0.00000
690,0x000E,1,FALSE,35.76445,0.14203,0.18930,3.95700,NAN,NAN,0.20000
740,0x000E,1,FALSE,38.41147,0.15250,0.18930,3.95570,NAN,NAN,0.30000
790,0x000E,1,FALSE,40.95386,0.16255,0.18930,3.95450,NAN,NAN,0.50000
840,0x000E,1,FALSE,43.54869,0.17281,0.18930,3.95320,NAN,NAN,0.20000
890,0x000E,1,FALSE,46.19636,0.18328,0.18930,3.95150,NAN,NAN,-0.50000
940,0x000E,1,FALSE,48.73989,0.19332,0.18930,3.94960,NAN,NAN,-0.50000
990,0x000E,1,FALSE,51.38564,0.20377,0.18930,3.94790,NAN,NAN,-0.20000
1040,0x000E,1,FALSE,53.92761,0.21380,0.18930,3.94650,NAN,NAN,0.00000
1090,0x000E,1,FALSE,56.57405,0.22424,0.18940,3.94500,NAN,NAN,0.10000
1140,0x000E,1,FALSE,59.11639,0.23427,0.18930,3.94360,NAN,NAN,0.00000
1190,0x000E,1,FALSE,61.76311,0.24471,0.18930,3.94230,NAN,NAN,0.20000
1240,0x000E,1,FALSE,64.30656,0.25473,0.18930,3.94120,NAN,NAN,0.30000
1290,0x000E,1,FALSE,66.90089,0.26495,0.18930,3.94020,NAN,NAN,0.50000
1340,0x000E,1,FALSE,69.54803,0.27538,0.18930,3.93920,NAN,NAN,0.40000
1390,0x000E,1,FALSE,72.09156,0.28540,0.18930,3.93780,NAN,NAN,-0.30000
1440,0x000E,1,FALSE,74.73822,0.29582,0.18930,3.93600,NAN,NAN,-0.60000
1490,0x000E,1,FALSE,77.28128,0.30583,0.18930,3.93450,NAN,NAN,-0.30000
1540,0x000E,1,FALSE,79.92867,0.31624,0.18930,3.93310,NAN,NAN,0.00000
1590,0x000E,1,FALSE,82.47220,0.32624,0.18930,3.93180,NAN,NAN,0.10000
1640,0x000E,1,FALSE,85.12016,0.33665,0.18930,3.93050,NAN,NAN,0.00000
1690,0x000E,1,FALSE,87.66394,0.34665,0.18930,3.92940,NAN,NAN,0.10000
1740,0x000E,1,FALSE,90.25983,0.35684,0.18930,3.92830,NAN,NAN,0.30000
1790,0x000E,1,FALSE,92.90786,0.36724,0.18930,3.92740,NAN,NAN,0.40000
1840,0x000E,1,FALSE,95.45175,0.37723,0.18930,3.92650,NAN,NAN,0.50000
1890,0x000E,1,FALSE,98.09958,0.38763,0.18930,3.92540,NAN,NAN,-0.20000
1940,0x000E,1,FALSE,100.643,0.39761,0.18930,3.92390,NAN,NAN,-0.80000
1990,0x000E,1,FALSE,103.291,0.40800,0.18930,3.92230,NAN,NAN,-0.40000
2040,0x000E,1,FALSE,105.835,0.41797,0.18940,3.92110,NAN,NAN,-0.20000
2090,0x000E,1,FALSE,108.431,0.42815,0.18940,3.91990,NAN,NAN,0.00000
2140,0x000E,1,FALSE,111.079,0.43853,0.18930,3.91870,NAN,NAN,0.00000
2190,0x000E,1,FALSE,113.623,0.44849,0.18940,3.91760,NAN,NAN,0.10000
2240,0x000E,1,FALSE,116.271,0.45886,0.18940,3.91660,NAN,NAN,0.20000
2290,0x000E,1,FALSE,118.815,0.46883,0.18940,3.91580,NAN,NAN,0.40000
2340,0x000E,1,FALSE,121.463,0.47919,0.18940,3.91510,NAN,NAN,0.50000
2390,0x000E,1,FALSE,124.006,0.48915,0.18940,3.91420,NAN,NAN,0.10000
2440,0x000E,1,FALSE,126.654,0.49951,0.18940,3.91270,NAN,NAN,-0.60000
2490,0x000E,1,FALSE,129.197,0.50946,0.18940,3.91120,NAN,NAN,-0.40000
2540,0x000E,1,FALSE,131.792,0.51961,0.18930,3.91000,NAN,NAN,-0.20000
2590,0x000E,1,FALSE,134.439,0.52995,0.18940,3.90880,NAN,NAN,0.00000
2640,0x000E,1,FALSE,136.982,0.53989,0.18940,3.90780,NAN,NAN,0.00000
2690,0x000E,1,FALSE,139.63,0.55024,0.18940,3.90670,NAN,NAN,0.00000
2740,0x000E,1,FALSE,142.173,0.56017,0.18940,3.90580,NAN,NAN,0.20000
2790,0x000E,1,FALSE,144.819,0.57050,0.18930,3.90490,NAN,NAN,0.30000
2840,0x000E,1,FALSE,147.363,0.58043,0.18940,3.90420,NAN,NAN,0.50000
2890,0x000E,1,FALSE,150.011,0.59077,0.18930,3.90350,NAN,NAN,0.20000
2940,0x000E,1,FALSE,152.555,0.60070,0.18930,3.90230,NAN,NAN,-0.50000
2990,0x000E,1,FALSE,155.151,0.61083,0.18930,3.90080,NAN,NAN,-0.60000
3040,0x000E,1,FALSE,157.799,0.62115,0.18930,3.89950,NAN,NAN,-0.30000
3090,0x000E,1,FALSE,160.343,0.63107,0.18930,3.89840,NAN,NAN,0.00000
3140,0x000E,1,FALSE,162.99,0.64139,0.18930,3.89740,NAN,NAN,0.10000
3190,0x000E,1,FALSE,165.534,0.65130,0.18930,3.89630,NAN,NAN,0.00000
3240,0x000E,1,FALSE,168.181,0.66161,0.18930,3.89540,NAN,NAN,0.10000
3290,0x000E,1,FALSE,170.724,0.67152,0.18930,3.89460,NAN,NAN,0.30000
3340,0x000E,1,FALSE,173.372,0.68183,0.18930,3.89390,NAN,NAN,0.50000
3390,0x000E,1,FALSE,175.916,0.69174,0.18940,3.89320,NAN,NAN,0.40000
3440,0x000E,1,FALSE,178.512,0.70184,0.18940,3.89210,NAN,NAN,-0.30000
3490,0x000E,1,FALSE,181.16,0.71214,0.18940,3.89060,NAN,NAN,-0.60000
3540,0x000E,1,FALSE,183.704,0.72204,0.18930,3.88940,NAN,NAN,-0.30000
3590,0x000E,1,FALSE,186.351,0.73233,0.18930,3.88830,NAN,NAN,0.00000
3640,0x000E,1,FALSE,188.895,0.74222,0.18940,3.88720,NAN,NAN,0.10000
3690,0x000E,1,FALSE,191.543,0.75251,0.18940,3.88620,NAN,NAN,0.00000
3740,0x000E,1,FALSE,194.087,0.76240,0.18930,3.88520,NAN,NAN,0.20000
3790,0x000E,1,FALSE,196.735,0.77268,0.18930,3.88440,NAN,NAN,0.30000
3840,0x000E,1,FALSE,199.279,0.78256,0.18930,3.88370,NAN,NAN,0.40000
3890,0x000E,1,FALSE,201.873,0.79264,0.18940,3.88310,NAN,NAN,0.50000
3940,0x000E,1,FALSE,204.521,0.80292,0.18930,3.88210,NAN,NAN,-0.20000
3990,0x000E,1,FALSE,207.064,0.81279,0.18930,3.88060,NAN,NAN,-0.70000
4040,0x000E,1,FALSE,209.71,0.82305,0.18930,3.87930,NAN,NAN,-0.30000
4090,0x000E,1,FALSE,212.252,0.83291,0.18930,3.87810,NAN,NAN,0.00000
4140,0x000E,1,FALSE,214.899,0.84317,0.18940,3.87710,NAN,NAN,0.10000
4190,0x000E,1,FALSE,217.442,0.85303,0.18940,3.87610,NAN,NAN,0.00000
4240,0x000E,1,FALSE,220.09,0.86329,0.18940,3.87510,NAN,NAN,0.20000
4290,0x000E,1,FALSE,222.634,0.87315,0.18940,3.87420,NAN,NAN,0.30000
4340,0x000E,1,FALSE,225.228,0.88320,0.18940,3.87350,NAN,NAN,0.40000
4390,0x000E,1,FALSE,227.876,0.89345,0.18940,3.87290,NAN,NAN,0.50000
4440,0x000E,1,FALSE,230.42,0.90330,0.18940,3.87210,NAN,NAN,0.10000
4490,0x000E,1,FALSE,233.067,0.91355,0.18940,3.87070,NAN,NAN,-0.60000
4540,0x000E,1,FALSE,235.611,0.92339,0.18930,3.86920,NAN,NAN,-0.40000
4590,0x000E,1,FALSE,238.259,0.93364,0.18940,3.86800,NAN,NAN,0.00000
4640,0x000E,1,FALSE,240.803,0.94348,0.18940,3.86700,NAN,NAN,0.10000
4690,0x000E,1,FALSE,243.4,0.95352,0.18940,3.86600,NAN,NAN,0.10000
4740,0x000E,1,FALSE,246.049,0.96376,0.18940,3.86490,NAN,NAN,0.10000
4790,0x000E,1,FALSE,248.594,0.97359,0.18930,3.86400,NAN,NAN,0.30000
4840,0x000E,1,FALSE,251.242,0.98382,0.18940,3.86330,NAN,NAN,0.40000
4890,0x000E,1,FALSE,253.787,0.99365,0.18940,3.86260,NAN,NAN,0.50000
4940,0x000E,1,FALSE,256.436,1.00388,0.18940,3.86190,NAN,NAN,0.30000
4990,0x000E,1,FALSE,258.98,1.01371,0.18940,3.86070,NAN,NAN,-0.40000
5040,0x000E,1,FALSE,261.628,1.02392,0.18930,3.85920,NAN,NAN,-0.40000
5090,0x000E,1,FALSE,264.173,1.03374,0.18930,3.85800,NAN,NAN,-0.20000
5140,0x000E,1,FALSE,266.769,1.04376,0.18930,3.85680,NAN,NAN,0.10000
5190,0x000E,1,FALSE,269.417,1.05397,0.18940,3.85580,NAN,NAN,0.20000
5240,0x000E,1,FALSE,271.962,1.06378,0.18940,3.85480,NAN,NAN,0.10000
5290,0x000E,1,FALSE,274.609,1.07398,0.18940,3.85380,NAN,NAN,0.20000
5340,0x000E,1,FALSE,277.154,1.08378,0.18940,3.85300,NAN,NAN,0.40000
5390,0x000E,1,FALSE,279.802,1.09399,0.18930,3.85230,NAN,NAN,0.50000
5440,0x000E,1,FALSE,282.346,1.10379,0.18930,3.85170,NAN,NAN,0.40000
5490,0x000E,1,FALSE,284.993,1.11398,0.18930,3.85050,NAN,NAN,-0.30000
5540,0x000E,1,FALSE,287.537,1.12377,0.18930,3.84900,NAN,NAN,-0.50000
5590,0x000E,1,FALSE,290.133,1.13376,0.18930,3.84770,NAN,NAN,-0.20000
5640,0x000E,1,FALSE,292.78,1.14395,0.18930,3.84650,NAN,NAN,0.10000
5690,0x000E,1,FALSE,295.324,1.15373,0.18930,3.84550,NAN,NAN,0.20000
5740,0x000E,1,FALSE,297.972,1.16391,0.18930,3.84440,NAN,NAN,0.10000
5790,0x000E,1,FALSE,300.516,1.17369,0.18930,3.84340,NAN,NAN,0.20000
5840,0x000E,1,FALSE,303.163,1.18386,0.18930,3.84250,NAN,NAN,0.40000
5890,0x000E,1,FALSE,305.706,1.19363,0.18930,3.84180,NAN,NAN,0.50000
5940,0x000E,1,FALSE,308.353,1.20380,0.18930,3.84120,NAN,NAN,0.60000
5990,0x000E,1,FALSE,310.897,1.21357,0.18940,3.84020,NAN,NAN,0.00000
6040,0x000E,1,FALSE,313.493,1.22353,0.18940,3.83870,NAN,NAN,-0.70000
6090,0x000E,1,FALSE,316.14,1.23369,0.18930,3.83720,NAN,NAN,-0.30000
6140,0x000E,1,FALSE,318.683,1.24345,0.18930,3.83610,NAN,NAN,0.00000
6190,0x000E,1,FALSE,321.33,1.25360,0.18930,3.83490,NAN,NAN,0.20000
6240,0x000E,1,FALSE,323.874,1.26335,0.18930,3.83390,NAN,NAN,0.10000
6290,0x000E,1,FALSE,326.521,1.27350,0.18930,3.83290,NAN,NAN,0.20000
6340,0x000E,1,FALSE,329.065,1.28325,0.18930,3.83190,NAN,NAN,0.30000
6390,0x000E,1,FALSE,331.712,1.29339,0.18930,3.83120,NAN,NAN,0.50000
6440,0x000E,1,FALSE,334.257,1.30314,0.18930,3.83050,NAN,NAN,0.60000
6490,0x000E,1,FALSE,336.853,1.31308,0.18930,3.82960,NAN,NAN,0.20000
6540,0x000E,1,FALSE,339.501,1.32322,0.18930,3.82820,NAN,NAN,-0.50000
6590,0x000E,1,FALSE,342.044,1.33295,0.18930,3.82670,NAN,NAN,-0.30000
6640,0x000E,1,FALSE,344.692,1.34308,0.18930,3.82540,NAN,NAN,0.00000
6690,0x000E,1,FALSE,347.235,1.35281,0.18940,3.82430,NAN,NAN,0.20000
6740,0x000E,1,FALSE,349.881,1.36293,0.18940,3.82320,NAN,NAN,0.20000
6790,0x000E,1,FALSE,352.425,1.37265,0.18940,3.82210,NAN,NAN,0.20000
6840,0x000E,1,FALSE,355.018,1.38256,0.18940,3.82110,NAN,NAN,0.30000
6890,0x000E,1,FALSE,357.665,1.39267,0.18940,3.82030,NAN,NAN,0.40000
6940,0x000E,1,FALSE,360.208,1.40239,0.18940,3.81960,NAN,NAN,0.60000
6990,0x000E,1,FALSE,362.856,1.41250,0.18940,3.81880,NAN,NAN,0.40000
7040,0x000E,1,FALSE,365.399,1.42221,0.18940,3.81760,NAN,NAN,-0.30000
7090,0x000E,1,FALSE,368.046,1.43231,0.18930,3.81600,NAN,NAN,-0.50000
7140,0x000E,1,FALSE,370.588,1.44201,0.18940,3.81470,NAN,NAN,0.00000
7190,0x000E,1,FALSE,373.234,1.45210,0.18930,3.81350,NAN,NAN,0.10000
7240,0x000E,1,FALSE,375.776,1.46179,0.18930,3.81240,NAN,NAN,0.20000
7290,0x000E,1,FALSE,378.371,1.47168,0.18930,3.81130,NAN,NAN,0.10000
7340,0x000E,1,FALSE,381.018,1.48176,0.18940,3.81020,NAN,NAN,0.20000
7390,0x000E,1,FALSE,383.561,1.49145,0.18930,3.80940,NAN,NAN,0.40000
7440,0x000E,1,FALSE,386.207,1.50153,0.18930,3.80860,NAN,NAN,0.50000
7490,0x000E,1,FALSE,388.75,1.51122,0.18930,3.80800,NAN,NAN,0.60000
7540,0x000E,1,FALSE,391.396,1.52129,0.18930,3.80680,NAN,NAN,-0.20000
7590,0x000E,1,FALSE,393.939,1.53097,0.18930,3.80530,NAN,NAN,-0.60000
7640,0x000E,1,FALSE,396.585,1.54104,0.18930,3.80390,NAN,NAN,-0.20000
7690,0x000E,1,FALSE,399.128,1.55070,0.18930,3.80280,NAN,NAN,0.10000
7740,0x000E,1,FALSE,401.723,1.56057,0.18930,3.80160,NAN,NAN,0.20000
7790,0x000E,1,FALSE,404.369,1.57063,0.18930,3.80060,NAN,NAN,0.20000
7840,0x000E,1,FALSE,406.912,1.58029,0.18930,3.79960,NAN,NAN,0.20000
7890,0x000E,1,FALSE,409.56,1.59035,0.18930,3.79870,NAN,NAN,0.40000
7940,0x000E,1,FALSE,412.103,1.60001,0.18930,3.79800,NAN,NAN,0.50000
7990,0x000E,1,FALSE,414.751,1.61006,0.18930,3.79730,NAN,NAN,0.60000
8040,0x000E,1,FALSE,417.293,1.61972,0.18930,3.79630,NAN,NAN,0.10000
8090,0x000E,1,FALSE,419.94,1.62976,0.18930,3.79480,NAN,NAN,-0.60000
8140,0x000E,1,FALSE,422.482,1.63941,0.18930,3.79350,NAN,NAN,-0.20000
8190,0x000E,1,FALSE,425.077,1.64925,0.18930,3.79240,NAN,NAN,0.10000
8240,0x000E,1,FALSE,427.723,1.65928,0.18930,3.79130,NAN,NAN,0.20000
8290,0x000E,1,FALSE,430.266,1.66892,0.18930,3.79030,NAN,NAN,0.20000
8340,0x000E,1,FALSE,432.912,1.67895,0.18930,3.78930,NAN,NAN,0.20000
8390,0x000E,1,FALSE,435.456,1.68858,0.18930,3.78850,NAN,NAN,0.30000
8440,0x000E,1,FALSE,438.103,1.69861,0.18930,3.78780,NAN,NAN,0.50000
8490,0x000E,1,FALSE,440.647,1.70824,0.18930,3.78720,NAN,NAN,0.60000
8540,0x000E,1,FALSE,443.294,1.71827,0.18930,3.78650,NAN,NAN,0.30000
8590,0x000E,1,FALSE,445.838,1.72790,0.18940,3.78520,NAN,NAN,-0.50000
8640,0x000E,1,FALSE,448.433,1.73772,0.18930,3.78380,NAN,NAN,-0.30000
8690,0x000E,1,FALSE,451.081,1.74774,0.18930,3.78270,NAN,NAN,0.00000
8740,0x000E,1,FALSE,453.625,1.75736,0.18940,3.78170,NAN,NAN,0.20000
8790,0x000E,1,FALSE,456.272,1.76737,0.18930,3.78090,NAN,NAN,0.20000
8840,0x000E,1,FALSE,458.815,1.77698,0.18940,3.78000,NAN,NAN,0.20000
8890,0x000E,1,FALSE,461.463,1.78699,0.18940,3.77920,NAN,NAN,0.30000
8940,0x000E,1,FALSE,464.007,1.79660,0.18930,3.77850,NAN,NAN,0.40000
8990,0x000E,1,FALSE,466.602,1.80640,0.18930,3.77800,NAN,NAN,0.60000
9040,0x000E,1,FALSE,469.249,1.81640,0.18940,3.77740,NAN,NAN,0.50000
9090,0x000E,1,FALSE,471.792,1.82601,0.18940,3.77650,NAN,NAN,-0.20000
9140,0x000E,1,FALSE,474.438,1.83600,0.18930,3.77510,NAN,NAN,-0.50000
9190,0x000E,1,FALSE,476.98,1.84559,0.18930,3.77410,NAN,NAN,0.00000
9240,0x000E,1,FALSE,479.625,1.85557,0.18930,3.77310,NAN,NAN,0.10000
9290,0x000E,1,FALSE,482.167,1.86516,0.18930,3.77230,NAN,NAN,0.20000
9340,0x000E,1,FALSE,484.813,1.87514,0.18930,3.77150,NAN,NAN,0.20000
9390,0x000E,1,FALSE,487.356,1.88473,0.18930,3.77080,NAN,NAN,0.20000
9440,0x000E,1,FALSE,489.951,1.89451,0.18930,3.77020,NAN,NAN,0.40000
9490,0x000E,1,FALSE,492.598,1.90449,0.18930,3.76970,NAN,NAN,0.50000
9540,0x000E,1,FALSE,495.141,1.91408,0.18930,3.76930,NAN,NAN,0.60000
9590,0x000E,1,FALSE,497.788,1.92405,0.18930,3.76860,NAN,NAN,0.10000
9640,0x000E,1,FALSE,500.332,1.93364,0.18930,3.76740,NAN,NAN,-0.60000
9690,0x000E,1,FALSE,502.978,1.94361,0.18930,3.76630,NAN,NAN,-0.20000
9740,0x000E,1,FALSE,505.52,1.95318,0.18930,3.76550,NAN,NAN,0.10000
9790,0x000E,1,FALSE,508.167,1.96314,0.18930,3.76470,NAN,NAN,0.20000
9840,0x000E,1,FALSE,510.709,1.97271,0.18930,3.76400,NAN,NAN,0.20000
9890,0x000E,1,FALSE,513.303,1.98247,0.18930,3.76330,NAN,NAN,0.20000
9940,0x000E,1,FALSE,515.949,1.99243,0.18940,3.76270,NAN,NAN,0.40000
9990,0x000E,1,FALSE,518.491,2.00199,0.18930,3.76230,NAN,NAN,0.50000
10040,0x000E,1,FALSE,521.137,2.01195,0.18940,3.76200,NAN,NAN,0.60000
10090,0x000E,1,FALSE,523.68,2.02151,0.18930,3.76150,NAN,NAN,0.20000
10140,0x000E,1,FALSE,526.327,2.03146,0.18930,3.76050,NAN,NAN,-0.50000
10190,0x000E,1,FALSE,528.869,2.04102,0.18930,3.75940,NAN,NAN,-0.30000
10240,0x000E,1,FALSE,531.516,2.05097,0.18930,3.75850,NAN,NAN,0.10000
10290,0x000E,1,FALSE,534.059,2.06053,0.18930,3.75790,NAN,NAN,0.20000
10340,0x000E,1,FALSE,536.654,2.07028,0.18940,3.75730,NAN,NAN,0.20000
10390,0x000E,1,FALSE,539.301,2.08022,0.18930,3.75660,NAN,NAN,0.20000
10440,0x000E,1,FALSE,541.843,2.08977,0.18930,3.75610,NAN,NAN,0.30000
10490,0x000E,1,FALSE,544.489,2.09971,0.18930,3.75570,NAN,NAN,0.50000
10540,0x000E,1,FALSE,547.032,2.10926,0.18930,3.75540,NAN,NAN,0.60000
10590,0x000E,1,FALSE,549.678,2.11919,0.18930,3.75510,NAN,NAN,0.30000
10640,0x000E,1,FALSE,552.221,2.12874,0.18930,3.75420,NAN,NAN,-0.40000
10690,0x000E,1,FALSE,554.867,2.13867,0.18930,3.75310,NAN,NAN,-0.40000
10740,0x000E,1,FALSE,557.411,2.14822,0.18930,3.75240,NAN,NAN,0.00000
10790,0x000E,1,FALSE,560.005,2.15795,0.18930,3.75170,NAN,NAN,0.10000
10840,0x000E,1,FALSE,562.651,2.16787,0.18930,3.75110,NAN,NAN,0.20000
10890,0x000E,1,FALSE,565.193,2.17741,0.18930,3.75050,NAN,NAN,0.10000
10940,0x000E,1,FALSE,567.839,2.18733,0.18930,3.75000,NAN,NAN,0.20000
10990,0x000E,1,FALSE,570.381,2.19687,0.18930,3.74970,NAN,NAN,0.40000
11040,0x000E,1,FALSE,573.029,2.20679,0.18930,3.74940,NAN,NAN,0.50000
11090,0x000E,1,FALSE,575.572,2.21633,0.18930,3.74920,NAN,NAN,0.50000
11140,0x000E,1,FALSE,578.167,2.22605,0.18940,3.74860,NAN,NAN,-0.20000
11190,0x000E,1,FALSE,580.812,2.23597,0.18930,3.74750,NAN,NAN,-0.50000
11240,0x000E,1,FALSE,583.353,2.24549,0.18940,3.74670,NAN,NAN,-0.20000
11290,0x000E,1,FALSE,585.999,2.25540,0.18930,3.74610,NAN,NAN,0.10000
11340,0x000E,1,FALSE,588.542,2.26492,0.18930,3.74560,NAN,NAN,0.20000
11390,0x000E,1,FALSE,591.188,2.27483,0.18940,3.74500,NAN,NAN,0.10000
11440,0x000E,1,FALSE,593.731,2.28436,0.18930,3.74450,NAN,NAN,0.20000
11490,0x000E,1,FALSE,596.378,2.29427,0.18940,3.74420,NAN,NAN,0.40000
11540,0x000E,1,FALSE,598.921,2.30379,0.18940,3.74400,NAN,NAN,0.50000
11590,0x000E,1,FALSE,601.515,2.31350,0.18930,3.74380,NAN,NAN,0.60000
11640,0x000E,1,FALSE,604.162,2.32341,0.18930,3.74330,NAN,NAN,0.00000
11690,0x000E,1,FALSE,606.704,2.33292,0.18930,3.74230,NAN,NAN,-0.60000
11740,0x000E,1,FALSE,609.35,2.34282,0.18930,3.74150,NAN,NAN,-0.20000
11790,0x000E,1,FALSE,611.893,2.35233,0.18930,3.74090,NAN,NAN,0.10000
11840,0x000E,1,FALSE,614.539,2.36223,0.18930,3.74040,NAN,NAN,0.20000
11890,0x000E,1,FALSE,617.082,2.37174,0.18940,3.73990,NAN,NAN,0.10000
11940,0x000E,1,FALSE,619.728,2.38164,0.18930,3.73950,NAN,NAN,0.20000
11990,0x000E,1,FALSE,622.27,2.39114,0.18930,3.73910,NAN,NAN,0.30000
12040,0x000E,1,FALSE,624.864,2.40084,0.18930,3.73890,NAN,NAN,0.50000
12090,0x000E,1,FALSE,627.509,2.41073,0.18930,3.73880,NAN,NAN,0.60000
12140,0x000E,1,FALSE,630.051,2.42023,0.18930,3.73850,NAN,NAN,0.20000
12190,0x000E,1,FALSE,632.697,2.43012,0.18930,3.73760,NAN,NAN,-0.50000
12240,0x000E,1,FALSE,635.238,2.43962,0.18930,3.73680,NAN,NAN,-0.30000
12290,0x000E,1,FALSE,637.884,2.44950,0.18940,3.73620,NAN,NAN,0.00000
12340,0x000E,1,FALSE,640.425,2.45899,0.18930,3.73570,NAN,NAN,0.10000
12390,0x000E,1,FALSE,643.071,2.46888,0.18930,3.73520,NAN,NAN,0.20000
12440,0x000E,1,FALSE,645.613,2.47837,0.18940,3.73480,NAN,NAN,0.20000
12490,0x000E,1,FALSE,648.207,2.48806,0.18930,3.73450,NAN,NAN,0.30000
12540,0x000E,1,FALSE,650.852,2.49793,0.18930,3.73430,NAN,NAN,0.50000
12590,0x000E,1,FALSE,653.394,2.50742,0.18930,3.73410,NAN,NAN,0.60000
12640,0x000E,1,FALSE,656.039,2.51730,0.18930,3.73400,NAN,NAN,0.30000
12690,0x000E,1,FALSE,658.581,2.52679,0.18930,3.73340,NAN,NAN,-0.40000
12740,0x000E,1,FALSE,661.225,2.53666,0.18930,3.73240,NAN,NAN,-0.40000
12790,0x000E,1,FALSE,663.765,2.54614,0.18930,3.73180,NAN,NAN,0.00000
12840,0x000E,1,FALSE,666.409,2.55601,0.18930,3.73130,NAN,NAN,0.10000
12890,0x000E,1,FALSE,668.95,2.56549,0.18930,3.73090,NAN,NAN,0.20000
12940,0x000E,1,FALSE,671.543,2.57516,0.18930,3.73040,NAN,NAN,0.10000
12990,0x000E,1,FALSE,674.188,2.58502,0.18930,3.73010,NAN,NAN,0.20000
13040,0x000E,1,FALSE,676.729,2.59450,0.18930,3.72990,NAN,NAN,0.40000
13090,0x000E,1,FALSE,679.374,2.60436,0.18930,3.72980,NAN,NAN,0.50000
13140,0x000E,1,FALSE,681.916,2.61384,0.18930,3.72970,NAN,NAN,0.50000
13190,0x000E,1,FALSE,684.561,2.62371,0.18930,3.72920,NAN,NAN,-0.30000
13240,0x000E,1,FALSE,687.102,2.63318,0.18930,3.72830,NAN,NAN,-0.50000
13290,0x000E,1,FALSE,689.747,2.64304,0.18930,3.72760,NAN,NAN,-0.20000
13340,0x000E,1,FALSE,692.34,2.65271,0.18930,3.72720,NAN,NAN,0.10000
13390,0x000E,1,FALSE,694.882,2.66218,0.18940,3.72680,NAN,NAN,0.20000
13440,0x000E,1,FALSE,697.527,2.67204,0.18930,3.72640,NAN,NAN,0.10000
13490,0x000E,1,FALSE,700.068,2.68151,0.18930,3.72610,NAN,NAN,0.20000
13540,0x000E,1,FALSE,702.714,2.69136,0.18930,3.72590,NAN,NAN,0.40000
13590,0x000E,1,FALSE,705.256,2.70083,0.18940,3.72580,NAN,NAN,0.50000
13640,0x000E,1,FALSE,707.901,2.71069,0.18940,3.72580,NAN,NAN,0.60000
13690,0x000E,1,FALSE,710.442,2.72015,0.18930,3.72540,NAN,NAN,0.00000
13740,0x000E,1,FALSE,713.036,2.72982,0.18930,3.72450,NAN,NAN,-0.60000
13790,0x000E,1,FALSE,715.682,2.73967,0.18940,3.72390,NAN,NAN,-0.20000
13840,0x000E,1,FALSE,718.225,2.74914,0.18930,3.72340,NAN,NAN,0.10000
13890,0x000E,1,FALSE,720.871,2.75899,0.18940,3.72300,NAN,NAN,0.20000
13940,0x000E,1,FALSE,723.413,2.76845,0.18940,3.72270,NAN,NAN,0.10000
13990,0x000E,1,FALSE,726.059,2.77830,0.18930,3.72230,NAN,NAN,0.20000
14040,0x000E,1,FALSE,728.601,2.78776,0.18930,3.72210,NAN,NAN,0.30000
14090,0x000E,1,FALSE,731.247,2.79761,0.18940,3.72200,NAN,NAN,0.50000
14140,0x000E,1,FALSE,733.789,2.80707,0.18930,3.72210,NAN,NAN,0.60000
14190,0x000E,1,FALSE,736.382,2.81672,0.18940,3.72180,NAN,NAN,0.10000
14240,0x000E,1,FALSE,739.028,2.82657,0.18940,3.72110,NAN,NAN,-0.60000
14290,0x000E,1,FALSE,741.569,2.83602,0.18930,3.72040,NAN,NAN,-0.30000
14340,0x000E,1,FALSE,744.215,2.84586,0.18940,3.71990,NAN,NAN,0.00000
14390,0x000E,1,FALSE,746.758,2.85532,0.18940,3.71960,NAN,NAN,0.20000
14440,0x000E,1,FALSE,749.405,2.86517,0.18930,3.71930,NAN,NAN,0.10000
14490,0x000E,1,FALSE,751.948,2.87462,0.18930,3.71890,NAN,NAN,0.20000
14540,0x000E,1,FALSE,754.595,2.88447,0.18940,3.71870,NAN,NAN,0.30000
14590,0x000E,1,FALSE,757.137,2.89392,0.18940,3.71870,NAN,NAN,0.50000
14640,0x000E,1,FALSE,759.732,2.90357,0.18930,3.71870,NAN,NAN,0.60000
14690,0x000E,1,FALSE,762.378,2.91340,0.18940,3.71870,NAN,NAN,0.30000
14740,0x000E,1,FALSE,764.92,2.92286,0.18930,3.71800,NAN,NAN,-0.50000
14790,0x000E,1,FALSE,767.565,2.93269,0.18930,3.71730,NAN,NAN,-0.40000
14840,0x000E,1,FALSE,770.107,2.94214,0.18940,3.71680,NAN,NAN,0.00000
14890,0x000E,1,FALSE,772.752,2.95197,0.18940,3.71640,NAN,NAN,0.10000
14940,0x000E,1,FALSE,775.294,2.96141,0.18940,3.71610,NAN,NAN,0.20000
14990,0x000E,1,FALSE,777.94,2.97125,0.18940,3.71580,NAN,NAN,0.20000
15040,0x000E,1,FALSE,780.482,2.98069,0.18940,3.71560,NAN,NAN,0.30000
15090,0x000E,1,FALSE,783.077,2.99033,0.18930,3.71560,NAN,NAN,0.40000
15140,0x000E,1,FALSE,785.723,3.00016,0.18930,3.71560,NAN,NAN,0.60000
15190,0x000E,1,FALSE,788.265,3.00960,0.18930,3.71570,NAN,NAN,0.40000
15240,0x000E,1,FALSE,790.91,3.01943,0.18930,3.71520,NAN,NAN,-0.30000
15290,0x000E,1,FALSE,793.452,3.02887,0.18930,3.71440,NAN,NAN,-0.50000
15340,0x000E,1,FALSE,796.098,3.03870,0.18940,3.71390,NAN,NAN,0.00000
15390,0x000E,1,FALSE,798.639,3.04814,0.18930,3.71360,NAN,NAN,0.10000
15440,0x000E,1,FALSE,801.285,3.05796,0.18940,3.71330,NAN,NAN,0.20000
15490,0x000E,1,FALSE,803.827,3.06740,0.18930,3.71300,NAN,NAN,0.20000
15540,0x000E,1,FALSE,806.42,3.07703,0.18940,3.71280,NAN,NAN,0.30000
15590,0x000E,1,FALSE,809.066,3.08685,0.18940,3.71270,NAN,NAN,0.40000
15640,0x000E,1,FALSE,811.608,3.09629,0.18930,3.71270,NAN,NAN,0.50000
15690,0x000E,1,FALSE,814.255,3.10612,0.18940,3.71290,NAN,NAN,0.60000
15740,0x000E,1,FALSE,816.797,3.11555,0.18940,3.71260,NAN,NAN,0.00000
15790,0x000E,1,FALSE,819.443,3.12537,0.18930,3.71180,NAN,NAN,-0.60000
15840,0x000E,1,FALSE,821.985,3.13481,0.18930,3.71120,NAN,NAN,-0.20000
15890,0x000E,1,FALSE,824.579,3.14443,0.18930,3.71080,NAN,NAN,0.10000
15940,0x000E,1,FALSE,827.224,3.15425,0.18930,3.71060,NAN,NAN,0.20000
15990,0x000E,1,FALSE,829.765,3.16368,0.18930,3.71030,NAN,NAN,0.20000
16040,0x000E,1,FALSE,832.41,3.17349,0.18930,3.71010,NAN,NAN,0.20000
16090,0x000E,1,FALSE,834.952,3.18292,0.18930,3.70990,NAN,NAN,0.40000
16140,0x000E,1,FALSE,837.597,3.19273,0.18930,3.70990,NAN,NAN,0.50000
16190,0x000E,1,FALSE,840.138,3.20216,0.18940,3.71000,NAN,NAN,0.60000
16240,0x000E,1,FALSE,842.783,3.21197,0.18930,3.70990,NAN,NAN,0.20000
16290,0x000E,1,FALSE,845.324,3.22139,0.18930,3.70930,NAN,NAN,-0.50000
16340,0x000E,1,FALSE,847.917,3.23101,0.18930,3.70860,NAN,NAN,-0.30000
16390,0x000E,1,FALSE,850.563,3.24082,0.18930,3.70820,NAN,NAN,0.10000
16440,0x000E,1,FALSE,853.106,3.25025,0.18930,3.70790,NAN,NAN,0.20000
16490,0x000E,1,FALSE,855.752,3.26006,0.18930,3.70770,NAN,NAN,0.20000
16540,0x000E,1,FALSE,858.294,3.26949,0.18940,3.70740,NAN,NAN,0.20000
16590,0x000E,1,FALSE,860.94,3.27929,0.18940,3.70720,NAN,NAN,0.30000
16640,0x000E,1,FALSE,863.482,3.28872,0.18930,3.70720,NAN,NAN,0.50000
16690,0x000E,1,FALSE,866.128,3.29853,0.18930,3.70730,NAN,NAN,0.60000
16740,0x000E,1,FALSE,868.671,3.30795,0.18940,3.70730,NAN,NAN,0.40000
16790,0x000E,1,FALSE,871.266,3.31757,0.18930,3.70680,NAN,NAN,-0.40000
16840,0x000E,1,FALSE,873.914,3.32738,0.18930,3.70600,NAN,NAN,-0.40000
16890,0x000E,1,FALSE,876.457,3.33681,0.18940,3.70560,NAN,NAN,0.00000
16940,0x000E,1,FALSE,879.105,3.34662,0.18930,3.70520,NAN,NAN,0.20000
16990,0x000E,1,FALSE,881.648,3.35604,0.18930,3.70500,NAN,NAN,0.30000
17040,0x000E,1,FALSE,884.294,3.36585,0.18940,3.70470,NAN,NAN,0.20000
17090,0x000E,1,FALSE,886.837,3.37526,0.18930,3.70450,NAN,NAN,0.30000
17140,0x000E,1,FALSE,889.484,3.38507,0.18940,3.70450,NAN,NAN,0.50000
17190,0x000E,1,FALSE,892.027,3.39449,0.18940,3.70460,NAN,NAN,0.60000
17240,0x000E,1,FALSE,894.621,3.40410,0.18930,3.70460,NAN,NAN,0.50000
17290,0x000E,1,FALSE,897.268,3.41390,0.18940,3.70420,NAN,NAN,-0.20000
17340,0x000E,1,FALSE,899.811,3.42332,0.18940,3.70340,NAN,NAN,-0.40000
17390,0x000E,1,FALSE,902.457,3.43312,0.18930,3.70280,NAN,NAN,0.00000
17440,0x000E,1,FALSE,905,3.44254,0.18940,3.70240,NAN,NAN,0.20000
17490,0x000E,1,FALSE,907.646,3.45233,0.18930,3.70220,NAN,NAN,0.30000
17540,0x000E,1,FALSE,910.189,3.46175,0.18940,3.70190,NAN,NAN,0.20000
17590,0x000E,1,FALSE,912.835,3.47154,0.18940,3.70160,NAN,NAN,0.30000
17640,0x000E,1,FALSE,915.377,3.48095,0.18940,3.70150,NAN,NAN,0.40000
17690,0x000E,1,FALSE,917.972,3.49055,0.18930,3.70160,NAN,NAN,0.60000
17740,0x000E,1,FALSE,920.619,3.50035,0.18940,3.70160,NAN,NAN,0.60000
17790,0x000E,1,FALSE,923.162,3.50976,0.18940,3.70130,NAN,NAN,0.00000
17840,0x000E,1,FALSE,925.809,3.51956,0.18940,3.70050,NAN,NAN,-0.50000
17890,0x000E,1,FALSE,928.352,3.52897,0.18940,3.69990,NAN,NAN,-0.20000
17940,0x000E,1,FALSE,931,3.53876,0.18940,3.69950,NAN,NAN,0.10000
17990,0x000E,1,FALSE,933.543,3.54817,0.18940,3.69920,NAN,NAN,0.30000
18040,0x000E,1,FALSE,936.139,3.55777,0.18930,3.69880,NAN,NAN,0.20000
18090,0x000E,1,FALSE,938.786,3.56756,0.18940,3.69850,NAN,NAN,0.30000
18140,0x000E,1,FALSE,941.33,3.57697,0.18930,3.69840,NAN,NAN,0.40000
18190,0x000E,1,FALSE,943.976,3.58675,0.18940,3.69840,NAN,NAN,0.60000
18240,0x000E,1,FALSE,946.519,3.59616,0.18930,3.69850,NAN,NAN,0.70000
18290,0x000E,1,FALSE,949.165,3.60594,0.18940,3.69820,NAN,NAN,0.20000
18340,0x000E,1,FALSE,951.708,3.61534,0.18940,3.69750,NAN,NAN,-0.50000
18390,0x000E,1,FALSE,954.355,3.62513,0.18930,3.69680,NAN,NAN,-0.20000
18440,0x000E,1,FALSE,956.898,3.63453,0.18930,3.69630,NAN,NAN,0.10000
18490,0x000E,1,FALSE,959.492,3.64412,0.18930,3.69600,NAN,NAN,0.30000
18540,0x000E,1,FALSE,962.14,3.65390,0.18930,3.69560,NAN,NAN,0.30000
18590,0x000E,1,FALSE,964.684,3.66330,0.18940,3.69530,NAN,NAN,0.30000
18640,0x000E,1,FALSE,967.331,3.67309,0.18930,3.69510,NAN,NAN,0.40000
18690,0x000E,1,FALSE,969.875,3.68248,0.18930,3.69500,NAN,NAN,0.60000
18740,0x000E,1,FALSE,972.52,3.69226,0.18940,3.69510,NAN,NAN,0.70000
18790,0x000E,1,FALSE,975.063,3.70165,0.18930,3.69490,NAN,NAN,0.30000
18840,0x000E,1,FALSE,977.709,3.71143,0.18930,3.69410,NAN,NAN,-0.40000
18890,0x000E,1,FALSE,980.253,3.72082,0.18930,3.69330,NAN,NAN,-0.20000
18940,0x000E,1,FALSE,982.848,3.73041,0.18940,3.69280,NAN,NAN,0.10000
18990,0x000E,1,FALSE,985.495,3.74018,0.18940,3.69230,NAN,NAN,0.30000
19040,0x000E,1,FALSE,988.038,3.74957,0.18930,3.69200,NAN,NAN,0.30000
19090,0x000E,1,FALSE,990.686,3.75934,0.18940,3.69160,NAN,NAN,0.30000
19140,0x000E,1,FALSE,993.229,3.76873,0.18930,3.69140,NAN,NAN,0.40000
19190,0x000E,1,FALSE,995.876,3.77850,0.18940,3.69120,NAN,NAN,0.60000
19240,0x000E,1,FALSE,998.42,3.78789,0.18940,3.69120,NAN,NAN,0.70000
19290,0x000E,1,FALSE,1001.07,3.79766,0.18940,3.69110,NAN,NAN,0.40000
19340,0x000E,1,FALSE,1003.61,3.80705,0.18930,3.69040,NAN,NAN,-0.30000
19390,0x000E,1,FALSE,1006.2,3.81662,0.18940,3.68950,NAN,NAN,-0.30000
19440,0x000E,1,FALSE,1008.85,3.82638,0.18930,3.68890,NAN,NAN,0.10000
19490,0x000E,1,FALSE,1011.4,3.83577,0.18930,3.68840,NAN,NAN,0.30000
19540,0x000E,1,FALSE,1014.04,3.84553,0.18940,3.68800,NAN,NAN,0.40000
19590,0x000E,1,FALSE,1016.59,3.85491,0.18930,3.68750,NAN,NAN,0.30000
19640,0x000E,1,FALSE,1019.23,3.86466,0.18940,3.68720,NAN,NAN,0.40000
19690,0x000E,1,FALSE,1021.78,3.87404,0.18940,3.68690,NAN,NAN,0.50000
19740,0x000E,1,FALSE,1024.42,3.88380,0.18930,3.68690,NAN,NAN,0.70000
19790,0x000E,1,FALSE,1026.96,3.89317,0.18940,3.68680,NAN,NAN,0.60000
19840,0x000E,1,FALSE,1029.56,3.90274,0.18930,3.68620,NAN,NAN,0.00000
19890,0x000E,1,FALSE,1032.21,3.91249,0.18930,3.68510,NAN,NAN,-0.40000
19940,0x000E,1,FALSE,1034.75,3.92185,0.18930,3.68450,NAN,NAN,0.10000
19990,0x000E,1,FALSE,1037.4,3.93161,0.18930,3.68390,NAN,NAN,0.30000
20040,0x000E,1,FALSE,1039.94,3.94097,0.18940,3.68340,NAN,NAN,0.40000
20090,0x000E,1,FALSE,1042.59,3.95072,0.18930,3.68290,NAN,NAN,0.30000
20140,0x000E,1,FALSE,1045.13,3.96009,0.18930,3.68240,NAN,NAN,0.30000
20190,0x000E,1,FALSE,1047.72,3.96964,0.18930,3.68210,NAN,NAN,0.50000
20240,0x000E,1,FALSE,1050.37,3.97938,0.18940,3.68190,NAN,NAN,0.60000
20290,0x000E,1,FALSE,1052.91,3.98874,0.18940,3.68180,NAN,NAN,0.70000
20340,0x000E,1,FALSE,1055.56,3.99849,0.18930,3.68130,NAN,NAN,0.20000
20390,0x000E,1,FALSE,1058.1,4.00784,0.18940,3.68030,NAN,NAN,-0.50000
20440,0x000E,1,FALSE,1060.75,4.01758,0.18930,3.67940,NAN,NAN,0.00000
20490,0x000E,1,FALSE,1063.29,4.02693,0.18930,3.67880,NAN,NAN,0.20000
20540,0x000E,1,FALSE,1065.93,4.03666,0.18940,3.67820,NAN,NAN,0.40000
20590,0x000E,1,FALSE,1068.48,4.04601,0.18940,3.67760,NAN,NAN,0.30000
20640,0x000E,1,FALSE,1071.07,4.05555,0.18930,3.67700,NAN,NAN,0.30000
20690,0x000E,1,FALSE,1073.72,4.06527,0.18930,3.67660,NAN,NAN,0.50000
20740,0x000E,1,FALSE,1076.26,4.07462,0.18930,3.67630,NAN,NAN,0.60000
20790,0x000E,1,FALSE,1078.9,4.08434,0.18930,3.67610,NAN,NAN,0.70000
20840,0x000E,1,FALSE,1081.44,4.09368,0.18930,3.67580,NAN,NAN,0.40000
20890,0x000E,1,FALSE,1084.09,4.10340,0.18930,3.67480,NAN,NAN,-0.40000
20940,0x000E,1,FALSE,1086.63,4.11274,0.18930,3.67360,NAN,NAN,-0.20000
20990,0x000E,1,FALSE,1089.28,4.12245,0.18930,3.67280,NAN,NAN,0.20000
21040,0x000E,1,FALSE,1091.82,4.13179,0.18930,3.67210,NAN,NAN,0.30000
21090,0x000E,1,FALSE,1094.41,4.14131,0.18940,3.67150,NAN,NAN,0.40000
21140,0x000E,1,FALSE,1097.06,4.15103,0.18940,3.67080,NAN,NAN,0.30000
21190,0x000E,1,FALSE,1099.6,4.16036,0.18940,3.67020,NAN,NAN,0.40000
21240,0x000E,1,FALSE,1102.25,4.17008,0.18940,3.66980,NAN,NAN,0.60000
21290,0x000E,1,FALSE,1104.79,4.17941,0.18930,3.66960,NAN,NAN,0.70000
21340,0x000E,1,FALSE,1107.44,4.18912,0.18940,3.66920,NAN,NAN,0.60000
21390,0x000E,1,FALSE,1109.98,4.19845,0.18940,3.66830,NAN,NAN,-0.10000
21440,0x000E,1,FALSE,1112.63,4.20816,0.18930,3.66700,NAN,NAN,-0.30000
21490,0x000E,1,FALSE,1115.17,4.21748,0.18930,3.66600,NAN,NAN,0.10000
21540,0x000E,1,FALSE,1117.77,4.22699,0.18940,3.66520,NAN,NAN,0.30000
21590,0x000E,1,FALSE,1120.41,4.23669,0.18930,3.66460,NAN,NAN,0.40000
21640,0x000E,1,FALSE,1122.96,4.24601,0.18930,3.66380,NAN,NAN,0.30000
21690,0x000E,1,FALSE,1125.6,4.25570,0.18940,3.66310,NAN,NAN,0.50000
21740,0x000E,1,FALSE,1128.15,4.26501,0.18930,3.66250,NAN,NAN,0.60000
21790,0x000E,1,FALSE,1130.79,4.27470,0.18940,3.66210,NAN,NAN,0.80000
21840,0x000E,1,FALSE,1133.33,4.28401,0.18940,3.66180,NAN,NAN,1.10000
21890,0x000E,1,FALSE,1135.98,4.29370,0.18940,3.66180,NAN,NAN,1.40000
21940,0x000E,1,FALSE,1138.52,4.30302,0.18940,3.66190,NAN,NAN,1.80000
21990,0x000E,1,FALSE,1141.12,4.31252,0.18930,3.66230,NAN,NAN,2.40000
22040,0x000E,1,FALSE,1143.77,4.32222,0.18940,3.66320,NAN,NAN,3.00000
22090,0x000E,1,FALSE,1146.31,4.33154,0.18940,3.66430,NAN,NAN,3.60000
22140,0x000E,1,FALSE,1148.96,4.34124,0.18940,3.66570,NAN,NAN,4.20000
22190,0x000E,1,FALSE,1151.5,4.35056,0.18940,3.66710,NAN,NAN,4.70000
22240,0x000E,1,FALSE,1154.15,4.36026,0.18940,3.66860,NAN,NAN,5.20000
22290,0x000E,1,FALSE,1156.69,4.36959,0.18940,3.67000,NAN,NAN,5.70000
22340,0x000E,1,FALSE,1159.33,4.37930,0.18940,3.67140,NAN,NAN,6.10000
22390,0x000E,1,FALSE,1161.93,4.38882,0.18940,3.67270,NAN,NAN,6.40000
22440,0x000E,1,FALSE,1164.47,4.39816,0.18930,3.67390,NAN,NAN,6.80000
22490,0x000E,1,FALSE,1167.11,4.40788,0.18940,3.67500,NAN,NAN,7.10000
22540,0x000E,1,FALSE,1169.66,4.41722,0.18940,3.67600,NAN,NAN,7.40000
22590,0x000E,1,FALSE,1172.3,4.42695,0.18940,3.67690,NAN,NAN,7.80000
22640,0x000E,1,FALSE,1174.85,4.43630,0.18940,3.67760,NAN,NAN,8.00000
22690,0x000E,1,FALSE,1177.49,4.44603,0.18940,3.67830,NAN,NAN,8.10000
22740,0x000E,1,FALSE,1180.03,4.45538,0.18930,3.67880,NAN,NAN,8.10000
22790,0x000E,1,FALSE,1182.63,4.46492,0.18930,3.67910,NAN,NAN,8.10000
22840,0x000E,1,FALSE,1185.27,4.47466,0.18930,3.67900,NAN,NAN,7.50000
22890,0x000E,1,FALSE,1187.81,4.48400,0.18930,3.67810,NAN,NAN,6.50000
22940,0x000E,1,FALSE,1190.46,4.49373,0.18940,3.67650,NAN,NAN,5.50000
22990,0x000E,1,FALSE,1193,4.50307,0.18940,3.67440,NAN,NAN,4.60000
23040,0x000E,1,FALSE,1195.65,4.51279,0.18940,3.67230,NAN,NAN,3.90000
23090,0x000E,1,FALSE,1198.19,4.52213,0.18940,3.66990,NAN,NAN,3.20000
23140,0x000E,1,FALSE,1200.84,4.53183,0.18930,3.66710,NAN,NAN,2.50000
23190,0x000E,1,FALSE,1203.38,4.54115,0.18940,3.66410,NAN,NAN,2.20000
23240,0x000E,1,FALSE,1205.97,4.55066,0.18930,3.66160,NAN,NAN,2.80000
23290,0x000E,1,FALSE,1208.62,4.56035,0.18940,3.65930,NAN,NAN,3.00000
23340,0x000E,1,FALSE,1211.16,4.56965,0.18940,3.65730,NAN,NAN,3.00000
23390,0x000E,1,FALSE,1213.81,4.57932,0.18940,3.65510,NAN,NAN,2.50000
23440,0x000E,1,FALSE,1216.35,4.58860,0.18930,3.65290,NAN,NAN,2.30000
23490,0x000E,1,FALSE,1219,4.59826,0.18940,3.65070,NAN,NAN,2.30000
23540,0x000E,1,FALSE,1221.54,4.60754,0.18930,3.64850,NAN,NAN,1.90000
23590,0x000E,1,FALSE,1224.18,4.61719,0.18940,3.64600,NAN,NAN,1.30000
23640,0x000E,1,FALSE,1226.73,4.62645,0.18930,3.64310,NAN,NAN,0.90000
23690,0x000E,1,FALSE,1229.32,4.63589,0.18930,3.64070,NAN,NAN,1.40000
23740,0x000E,1,FALSE,1231.96,4.64552,0.18930,3.63850,NAN,NAN,1.50000
23790,0x000E,1,FALSE,1234.51,4.65476,0.18940,3.63650,NAN,NAN,1.60000
23840,0x000E,1,FALSE,1237.15,4.66438,0.18930,3.63450,NAN,NAN,1.30000
23890,0x000E,1,FALSE,1239.69,4.67361,0.18940,3.63230,NAN,NAN,1.30000
23940,0x000E,1,FALSE,1242.34,4.68322,0.18930,3.63030,NAN,NAN,1.40000
23990,0x000E,1,FALSE,1244.88,4.69244,0.18940,3.62850,NAN,NAN,1.50000
24040,0x000E,1,FALSE,1247.52,4.70204,0.18940,3.62650,NAN,NAN,1.00000
24090,0x000E,1,FALSE,1250.06,4.71125,0.18940,3.62380,NAN,NAN,0.30000
24140,0x000E,1,FALSE,1252.66,4.72064,0.18940,3.62110,NAN,NAN,0.60000
24190,0x000E,1,FALSE,1255.3,4.73021,0.18940,3.61890,NAN,NAN,0.80000
24240,0x000E,1,FALSE,1257.84,4.73941,0.18940,3.61680,NAN,NAN,1.00000
24290,0x000E,1,FALSE,1260.49,4.74897,0.18930,3.61490,NAN,NAN,0.90000
24340,0x000E,1,FALSE,1263.03,4.75815,0.18940,3.61280,NAN,NAN,0.80000
24390,0x000E,1,FALSE,1265.68,4.76771,0.18940,3.61100,NAN,NAN,0.90000
24440,0x000E,1,FALSE,1268.22,4.77689,0.18940,3.60930,NAN,NAN,1.00000
24490,0x000E,1,FALSE,1270.86,4.78644,0.18940,3.60800,NAN,NAN,1.10000
24540,0x000E,1,FALSE,1273.41,4.79560,0.18940,3.60640,NAN,NAN,0.70000
24590,0x000E,1,FALSE,1276,4.80495,0.18940,3.60420,NAN,NAN,0.00000
24640,0x000E,1,FALSE,1278.65,4.81448,0.18940,3.60190,NAN,NAN,0.30000
24690,0x000E,1,FALSE,1281.19,4.82364,0.18940,3.60020,NAN,NAN,0.60000
24740,0x000E,1,FALSE,1283.83,4.83316,0.18940,3.59880,NAN,NAN,0.70000
24790,0x000E,1,FALSE,1286.38,4.84231,0.18940,3.59750,NAN,NAN,0.70000
24840,0x000E,1,FALSE,1289.02,4.85182,0.18940,3.59600,NAN,NAN,0.60000
24890,0x000E,1,FALSE,1291.56,4.86096,0.18930,3.59490,NAN,NAN,0.70000
24940,0x000E,1,FALSE,1294.16,4.87028,0.18940,3.59390,NAN,NAN,0.90000
24990,0x000E,1,FALSE,1296.8,4.87979,0.18940,3.59320,NAN,NAN,1.00000
25040,0x000E,1,FALSE,1299.35,4.88893,0.18940,3.59220,NAN,NAN,0.60000
25090,0x000E,1,FALSE,1301.99,4.89843,0.18940,3.59040,NAN,NAN,0.00000
25140,0x000E,1,FALSE,1304.54,4.90756,0.18940,3.58850,NAN,NAN,0.20000
25190,0x000E,1,FALSE,1307.18,4.91705,0.18940,3.58710,NAN,NAN,0.50000
25240,0x000E,1,FALSE,1309.73,4.92618,0.18940,3.58590,NAN,NAN,0.60000
25290,0x000E,1,FALSE,1312.37,4.93567,0.18940,3.58480,NAN,NAN,0.60000
25340,0x000E,1,FALSE,1314.92,4.94478,0.18940,3.58350,NAN,NAN,0.50000
25390,0x000E,1,FALSE,1317.51,4.95408,0.18940,3.58250,NAN,NAN,0.70000
25440,0x000E,1,FALSE,1320.16,4.96356,0.18940,3.58160,NAN,NAN,0.80000
25490,0x000E,1,FALSE,1322.7,4.97266,0.18940,3.58100,NAN,NAN,0.90000
25540,0x000E,1,FALSE,1325.35,4.98214,0.18940,3.58020,NAN,NAN,0.70000
25590,0x000E,1,FALSE,1327.89,4.99124,0.18930,3.57850,NAN,NAN,0.00000
25640,0x000E,1,FALSE,1330.54,5.00071,0.18940,3.57650,NAN,NAN,0.10000
25690,0x000E,1,FALSE,1333.08,5.00980,0.18940,3.57500,NAN,NAN,0.40000
25740,0x000E,1,FALSE,1335.72,5.01925,0.18940,3.57370,NAN,NAN,0.60000
25790,0x000E,1,FALSE,1338.27,5.02833,0.18940,3.57250,NAN,NAN,0.60000
25840,0x000E,1,FALSE,1340.86,5.03760,0.18940,3.57120,NAN,NAN,0.50000
25890,0x000E,1,FALSE,1343.51,5.04705,0.18940,3.57000,NAN,NAN,0.60000
25940,0x000E,1,FALSE,1346.05,5.05612,0.18930,3.56910,NAN,NAN,0.80000
25990,0x000E,1,FALSE,1348.69,5.06556,0.18940,3.56830,NAN,NAN,0.90000
26040,0x000E,1,FALSE,1351.24,5.07463,0.18940,3.56740,NAN,NAN,0.80000
26090,0x000E,1,FALSE,1353.88,5.08406,0.18940,3.56570,NAN,NAN,0.10000
26140,0x000E,1,FALSE,1356.42,5.09312,0.18940,3.56320,NAN,NAN,0.00000
26190,0x000E,1,FALSE,1359.07,5.10254,0.18940,3.56140,NAN,NAN,0.30000
26240,0x000E,1,FALSE,1361.61,5.11159,0.18940,3.55980,NAN,NAN,0.50000
26290,0x000E,1,FALSE,1364.2,5.12083,0.18940,3.55840,NAN,NAN,0.60000
26340,0x000E,1,FALSE,1366.85,5.13025,0.18940,3.55680,NAN,NAN,0.50000
26390,0x000E,1,FALSE,1369.4,5.13929,0.18940,3.55520,NAN,NAN,0.60000
26440,0x000E,1,FALSE,1372.04,5.14869,0.18940,3.55390,NAN,NAN,0.80000
26490,0x000E,1,FALSE,1374.58,5.15773,0.18940,3.55270,NAN,NAN,0.90000
26540,0x000E,1,FALSE,1377.23,5.16713,0.18940,3.55160,NAN,NAN,0.90000
26590,0x000E,1,FALSE,1379.77,5.17615,0.18940,3.54960,NAN,NAN,0.20000
26640,0x000E,1,FALSE,1382.42,5.18554,0.18940,3.54670,NAN,NAN,-0.10000
26690,0x000E,1,FALSE,1384.96,5.19456,0.18940,3.54430,NAN,NAN,0.30000
26740,0x000E,1,FALSE,1387.56,5.20375,0.18940,3.54220,NAN,NAN,0.50000
26790,0x000E,1,FALSE,1390.2,5.21312,0.18940,3.54020,NAN,NAN,0.60000
26840,0x000E,1,FALSE,1392.75,5.22212,0.18940,3.53810,NAN,NAN,0.50000
26890,0x000E,1,FALSE,1395.39,5.23148,0.18940,3.53600,NAN,NAN,0.60000
26940,0x000E,1,FALSE,1397.94,5.24047,0.18940,3.53400,NAN,NAN,0.70000
26990,0x000E,1,FALSE,1400.58,5.24982,0.18940,3.53230,NAN,NAN,0.90000
27040,0x000E,1,FALSE,1403.13,5.25880,0.18940,3.53060,NAN,NAN,0.90000
27090,0x000E,1,FALSE,1405.72,5.26796,0.18940,3.52800,NAN,NAN,0.30000
27140,0x000E,1,FALSE,1408.37,5.27729,0.18930,3.52420,NAN,NAN,-0.20000
27190,0x000E,1,FALSE,1410.91,5.28624,0.18940,3.52090,NAN,NAN,0.30000
27240,0x000E,1,FALSE,1413.56,5.29556,0.18930,3.51790,NAN,NAN,0.50000
27290,0x000E,1,FALSE,1416.1,5.30450,0.18940,3.51510,NAN,NAN,0.60000
27340,0x000E,1,FALSE,1418.74,5.31379,0.18940,3.51210,NAN,NAN,0.50000
27390,0x000E,1,FALSE,1421.29,5.32272,0.18940,3.50880,NAN,NAN,0.60000
27440,0x000E,1,FALSE,1423.93,5.33200,0.18930,3.50580,NAN,NAN,0.70000
27490,0x000E,1,FALSE,1426.48,5.34091,0.18940,3.50300,NAN,NAN,0.90000
27540,0x000E,1,FALSE,1429.07,5.35000,0.18940,3.50030,NAN,NAN,1.00000
27590,0x000E,1,FALSE,1431.72,5.35926,0.18940,3.49650,NAN,NAN,0.40000
27640,0x000E,1,FALSE,1434.26,5.36815,0.18940,3.49150,NAN,NAN,-0.30000
27690,0x000E,1,FALSE,1436.91,5.37738,0.18940,3.48640,NAN,NAN,0.30000
27740,0x000E,1,FALSE,1439.45,5.38624,0.18940,3.48180,NAN,NAN,0.50000
27790,0x000E,1,FALSE,1442.1,5.39545,0.18940,3.47720,NAN,NAN,0.70000
27840,0x000E,1,FALSE,1444.65,5.40429,0.18940,3.47250,NAN,NAN,0.60000
27890,0x000E,1,FALSE,1447.29,5.41348,0.18940,3.46730,NAN,NAN,0.60000
27940,0x000E,1,FALSE,1449.84,5.42229,0.18940,3.46220,NAN,NAN,0.80000
27990,0x000E,1,FALSE,1452.43,5.43127,0.18940,3.45710,NAN,NAN,0.90000
28040,0x000E,1,FALSE,1455.08,5.44042,0.18940,3.45200,NAN,NAN,1.00000
28090,0x000E,1,FALSE,1457.62,5.44919,0.18940,3.44610,NAN,NAN,0.60000
28140,0x000E,1,FALSE,1460.27,5.45830,0.18940,3.43820,NAN,NAN,0.00000
28190,0x000E,1,FALSE,1462.81,5.46702,0.18940,3.42990,NAN,NAN,0.30000
28240,0x000E,1,FALSE,1465.46,5.47609,0.18940,3.42170,NAN,NAN,0.60000
28290,0x000E,1,FALSE,1468,5.48478,0.18940,3.41370,NAN,NAN,0.70000
28340,0x000E,1,FALSE,1470.65,5.49380,0.18940,3.40510,NAN,NAN,0.70000
28390,0x000E,1,FALSE,1473.19,5.50245,0.18940,3.39590,NAN,NAN,0.70000
28440,0x000E,1,FALSE,1475.79,5.51125,0.18940,3.38630,NAN,NAN,0.80000
28490,0x000E,1,FALSE,1478.43,5.52020,0.18940,3.37640,NAN,NAN,0.90000
28540,0x000E,1,FALSE,1480.97,5.52877,0.18940,3.36650,NAN,NAN,1.10000
28590,0x000E,1,FALSE,1483.62,5.53767,0.18940,3.35560,NAN,NAN,0.90000
28640,0x000E,1,FALSE,1486.17,5.54619,0.18940,3.34250,NAN,NAN,0.30000
28690,0x000E,1,FALSE,1488.81,5.55501,0.18940,3.32700,NAN,NAN,0.20000
28740,0x000E,1,FALSE,1491.36,5.56345,0.18940,3.31200,NAN,NAN,0.60000
28790,0x000E,1,FALSE,1494,5.57220,0.18940,3.29620,NAN,NAN,0.80000
28840,0x000E,1,FALSE,1496.54,5.58055,0.18940,3.27990,NAN,NAN,0.90000
28890,0x000E,1,FALSE,1499.14,5.58904,0.18940,3.26190,NAN,NAN,0.80000
28940,0x000E,1,FALSE,1501.78,5.59764,0.18940,3.24220,NAN,NAN,0.90000
28990,0x000E,1,FALSE,1504.32,5.60585,0.18940,3.22190,NAN,NAN,1.00000
29040,0x000E,1,FALSE,1506.97,5.61434,0.18940,3.20000,NAN,NAN,1.20000
29090,0x000E,1,FALSE,1509.51,5.62245,0.18940,3.17710,NAN,NAN,1.20000
29140,0x000E,1,FALSE,1512.16,5.63082,0.18940,3.14960,NAN,NAN,0.60000
29190,0x000E,1,FALSE,1514.7,5.63878,0.18940,3.11790,NAN,NAN,0.30000
29240,0x000E,1,FALSE,1517.29,5.64682,0.18940,3.08470,NAN,NAN,0.70000
29290,0x000E,1,FALSE,1519.94,5.65494,0.18940,3.04940,NAN,NAN,1.00000
29340,0x000E,1,FALSE,1522.48,5.66264,0.18940,3.01250,NAN,NAN,1.20000
29390,0x000E,1,FALSE,1525.12,5.67056,0.18940,2.97120,NAN,NAN,1.00000
29440,0x000E,1,FALSE,1527.67,5.67805,0.18940,2.92670,NAN,NAN,1.10000
29490,0x000E,1,FALSE,1530.31,5.68573,0.18940,2.87810,NAN,NAN,1.20000
29540,0x000E,1,FALSE,1532.85,5.69298,0.18940,2.82760,NAN,NAN,1.40000
29590,0x000E,1,FALSE,1535.5,5.70039,0.18940,2.77240,NAN,NAN,1.50000
29608,0x000E,1,FALSE,1536.43,3.51668,0.18940,2.74990,NAN,NAN,1.40000

[DISCHARGE RESULT]
LoRange,FALSE
FinishedBy,1(Cut Voltage)
OpenVolt[V],4.02500
OpenCurr[A],0.00010
OpenTemp[°C],-0.30000
StartVolt[V],4.00550
StartCurr[A],0.18910
StartTemp[°C],-0.30000
CutoffVolt[V],2.74990
CutoffCurr[A],0.18940
CutoffTemp[°C],1.40000
TimeElapsed[s],29608
Power[Wh],3.51668
StartPulseA[V],NAN
CurrPulseA[V],NAN
StartPulseB[V],NAN
CurrPulseB[V],NAN
TempSet[°C],OFF
TempMon[°C],OFF
HumidSet[%],OFF
HumidMon[%],OFF

[LIFE]
CycleNo,2
Action,Discharge
Start,2021/02/28,21:40:14
End,2021/03/01,5:53:45
Capacity[mAh],925.031

[IMPEDANCE],AfterCharge,AfterRest
Range,0,0
AutoRange,FALSE,FALSE
Resistance[ohm],NAN,NAN
Reactance[ohm],NAN,NAN