File: csvFiles/20210227/temp10.CSV
[TEST CONDITION]
CondName,バッテリ温度特性試験20210227
ModelID,21
Average,0
CheckDut,FALSE
AutoFine,FALSE
DateTime,2021/02/27,21:40:39
Operator,米山まうむ
Notes,運用に向けてバッテリの温度特性を測定する
運用時の消費電流を鑑み，0.1C放電で行う
なおこんなに運用直前にやることではないので，次期プロジェクトの人間はもっと早い段階で行うことをお勧めする
BatteryName,UF103450P
NominalCapacity[mAh],1800.0
NominalVoltage[V],3.70000
Volume[ml],0.10
Weight[g],38.30
SoftOvp[V],4.40000
SoftUvp[V],2.50000
SoftOah[%],110
SoftOtp[°C],60.00000
DeltaT[s],10.00000
DeltaV[V],0.10000
DeltaI[A],0.10000
ImpRange[ohm],0
Frequency[Hz],1000
AutoRange,FALSE
AfterCharge,FALSE
AfterChargeRest,FALSE
AfterDischarge,FALSE
AfterDischargeRest,FALSE
CapacityRate_C[%],OFF
CapacityRate_D[%],OFF
Impedance_C[ohm],OFF
Impedance_D[ohm],OFF
SeqInfoName,

[CHARGE SHEET]
SheetNo,2
Range,HIGH
Mode,CC-CV
ChargeTime[s],0
RestTime[s],0
Current[A],0.00000
CvVolt[V],0.00000
CvTime[s],0
ItCurrent[A],OFF
ItTime[s],OFF

[DISCHARGE SHEET]
SheetNo,2
Range,HIGH
Mode,CC
DischargeTime[s],43200
RestTime[s],0
Current[A],0.18800
CapacityVolt[V],3.70000
CutoffVolt[V],2.75000

[DISCHARGE MONITOR]
TimeElapsed[s],StdState,OpnState,LowRange,Capacity[mAh],Power[Wh],Curr[A],Volt[V],VoltHi[V],VoltLo[V],Temp[°C],TermState,CellVolt[V],CellVoltHi[V],CellVoltLo[V],CellTemp[°C],(continued)
0,0x000E,0,FALSE,0.00000,0.00000,0.00000,4.08300,NAN,NAN,9.80000
40,0x000E,1,FALSE,1.93708,0.00784,0.18930,4.04180,NAN,NAN,9.90000
90,0x000E,1,FALSE,4.47856,0.01810,0.18930,4.03610,NAN,NAN,9.90000
140,0x000E,1,FALSE,6.92106,0.02795,0.18930,4.03250,NAN,NAN,9.70000
190,0x000E,1,FALSE,9.46308,0.03820,0.18930,4.02970,NAN,NAN,9.90000
240,0x000E,1,FALSE,11.90614,0.04804,0.18930,4.02750,NAN,NAN,10.20000
290,0x000E,1,FALSE,14.44878,0.05828,0.18930,4.02570,NAN,NAN,10.30000
340,0x000E,1,FALSE,16.89156,0.06811,0.18930,4.02410,NAN,NAN,10.50000
390,0x000E,1,FALSE,19.38280,0.07813,0.18930,4.02260,NAN,NAN,10.60000
440,0x000E,1,FALSE,21.92397,0.08835,0.18930,4.02100,NAN,NAN,10.10000
490,0x000E,1,FALSE,24.36592,0.09817,0.18930,4.01930,NAN,NAN,9.50000
540,0x000E,1,FALSE,26.90697,0.10838,0.18930,4.01760,NAN,NAN,9.80000
590,0x000E,1,FALSE,29.34828,0.11818,0.18930,4.01600,NAN,NAN,9.90000
640,0x000E,1,FALSE,31.89017,0.12839,0.18930,4.01450,NAN,NAN,10.00000
690,0x000E,1,FALSE,34.33247,0.13819,0.18930,4.01300,NAN,NAN,9.80000
740,0x000E,1,FALSE,36.87394,0.14839,0.18930,4.01140,NAN,NAN,9.80000
790,0x000E,1,FALSE,39.31606,0.15818,0.18930,4.01000,NAN,NAN,10.10000
840,0x000E,1,FALSE,41.80791,0.16817,0.18930,4.00870,NAN,NAN,10.30000
890,0x000E,1,FALSE,44.34919,0.17835,0.18930,4.00750,NAN,NAN,10.50000
940,0x000E,1,FALSE,46.79097,0.18814,0.18930,4.00640,NAN,NAN,10.60000
990,0x000E,1,FALSE,49.33308,0.19832,0.18930,4.00520,NAN,NAN,10.30000
1040,0x000E,1,FALSE,51.77494,0.20810,0.18930,4.00390,NAN,NAN,9.80000
1090,0x000E,1,FALSE,54.31664,0.21827,0.18930,4.00230,NAN,NAN,9.80000
1140,0x000E,1,FALSE,56.75895,0.22805,0.18930,4.00100,NAN,NAN,10.00000
1190,0x000E,1,FALSE,59.30111,0.23821,0.18930,3.99970,NAN,NAN,10.10000
1240,0x000E,1,FALSE,61.74294,0.24798,0.18930,3.99840,NAN,NAN,10.00000
1290,0x000E,1,FALSE,64.23547,0.25794,0.18930,3.99700,NAN,NAN,9.90000
1340,0x000E,1,FALSE,66.77714,0.26810,0.18930,3.99560,NAN,NAN,10.00000
1390,0x000E,1,FALSE,69.21858,0.27785,0.18930,3.99440,NAN,NAN,10.30000
1440,0x000E,1,FALSE,71.75977,0.28800,0.18930,3.99330,NAN,NAN,10.50000
1490,0x000E,1,FALSE,74.20089,0.29775,0.18930,3.99220,NAN,NAN,10.60000
1540,0x000E,1,FALSE,76.74174,0.30789,0.18930,3.99120,NAN,NAN,10.70000
1590,0x000E,1,FALSE,79.18405,0.31763,0.18930,3.99000,NAN,NAN,10.20000
1640,0x000E,1,FALSE,81.67547,0.32757,0.18930,3.98860,NAN,NAN,9.70000
1690,0x000E,1,FALSE,84.21587,0.33770,0.18930,3.98720,NAN,NAN,9.90000
1740,0x000E,1,FALSE,86.65661,0.34743,0.18930,3.98580,NAN,NAN,10.00000
1790,0x000E,1,FALSE,89.19720,0.35755,0.18930,3.98450,NAN,NAN,10.10000
1840,0x000E,1,FALSE,91.63883,0.36728,0.18930,3.98320,NAN,NAN,9.90000
1890,0x000E,1,FALSE,94.17986,0.37740,0.18930,3.98180,NAN,NAN,9.90000
1940,0x000E,1,FALSE,96.62128,0.38712,0.18930,3.98050,NAN,NAN,10.10000
1990,0x000E,1,FALSE,99.16339,0.39724,0.18930,3.97940,NAN,NAN,10.40000
2040,0x000E,1,FALSE,101.606,0.40695,0.18930,3.97830,NAN,NAN,10.50000
2090,0x000E,1,FALSE,104.099,0.41687,0.18930,3.97730,NAN,NAN,10.60000
2140,0x000E,1,FALSE,106.642,0.42698,0.18930,3.97630,NAN,NAN,10.40000
2190,0x000E,1,FALSE,109.085,0.43669,0.18930,3.97500,NAN,NAN,9.80000
2240,0x000E,1,FALSE,111.627,0.44680,0.18930,3.97360,NAN,NAN,9.80000
2290,0x000E,1,FALSE,114.07,0.45650,0.18930,3.97230,NAN,NAN,10.00000
2340,0x000E,1,FALSE,116.613,0.46660,0.18930,3.97100,NAN,NAN,10.10000
2390,0x000E,1,FALSE,119.055,0.47630,0.18930,3.96980,NAN,NAN,10.10000
2440,0x000E,1,FALSE,121.598,0.48639,0.18930,3.96850,NAN,NAN,9.90000
2490,0x000E,1,FALSE,124.039,0.49607,0.18930,3.96720,NAN,NAN,10.00000
2540,0x000E,1,FALSE,126.532,0.50596,0.18930,3.96610,NAN,NAN,10.30000
2590,0x000E,1,FALSE,129.073,0.51604,0.18930,3.96510,NAN,NAN,10.50000
2640,0x000E,1,FALSE,131.514,0.52571,0.18930,3.96410,NAN,NAN,10.60000
2690,0x000E,1,FALSE,134.056,0.53579,0.18930,3.96310,NAN,NAN,10.70000
2740,0x000E,1,FALSE,136.497,0.54546,0.18930,3.96210,NAN,NAN,10.20000
2790,0x000E,1,FALSE,139.038,0.55553,0.18930,3.96080,NAN,NAN,9.70000
2840,0x000E,1,FALSE,141.481,0.56520,0.18930,3.95950,NAN,NAN,9.90000
2890,0x000E,1,FALSE,144.023,0.57526,0.18930,3.95830,NAN,NAN,10.00000
2940,0x000E,1,FALSE,146.466,0.58493,0.18930,3.95710,NAN,NAN,10.00000
2990,0x000E,1,FALSE,148.959,0.59479,0.18930,3.95600,NAN,NAN,9.90000
3040,0x000E,1,FALSE,151.502,0.60485,0.18930,3.95470,NAN,NAN,9.80000
3090,0x000E,1,FALSE,153.945,0.61451,0.18930,3.95350,NAN,NAN,10.00000
3140,0x000E,1,FALSE,156.488,0.62456,0.18930,3.95250,NAN,NAN,10.30000
3190,0x000E,1,FALSE,158.93,0.63421,0.18930,3.95160,NAN,NAN,10.50000
3240,0x000E,1,FALSE,161.471,0.64425,0.18930,3.95070,NAN,NAN,10.60000
3290,0x000E,1,FALSE,163.913,0.65390,0.18930,3.94980,NAN,NAN,10.50000
3340,0x000E,1,FALSE,166.455,0.66394,0.18930,3.94880,NAN,NAN,9.90000
3390,0x000E,1,FALSE,168.897,0.67358,0.18930,3.94750,NAN,NAN,9.70000
3440,0x000E,1,FALSE,171.39,0.68341,0.18930,3.94630,NAN,NAN,9.90000
3490,0x000E,1,FALSE,173.931,0.69344,0.18930,3.94520,NAN,NAN,10.00000
3540,0x000E,1,FALSE,176.372,0.70307,0.18930,3.94420,NAN,NAN,10.10000
3590,0x000E,1,FALSE,178.914,0.71309,0.18930,3.94300,NAN,NAN,9.90000
3640,0x000E,1,FALSE,181.356,0.72272,0.18930,3.94190,NAN,NAN,10.00000
3690,0x000E,1,FALSE,183.897,0.73273,0.18930,3.94090,NAN,NAN,10.20000
3740,0x000E,1,FALSE,186.337,0.74235,0.18930,3.94000,NAN,NAN,10.40000
3790,0x000E,1,FALSE,188.878,0.75236,0.18930,3.93920,NAN,NAN,10.60000
3840,0x000E,1,FALSE,191.319,0.76197,0.18930,3.93850,NAN,NAN,10.60000
3890,0x000E,1,FALSE,193.81,0.77178,0.18930,3.93750,NAN,NAN,10.10000
3940,0x000E,1,FALSE,196.351,0.78178,0.18930,3.93640,NAN,NAN,9.60000
3990,0x000E,1,FALSE,198.791,0.79139,0.18930,3.93520,NAN,NAN,9.90000
4040,0x000E,1,FALSE,201.332,0.80138,0.18930,3.93410,NAN,NAN,10.00000
4090,0x000E,1,FALSE,203.773,0.81098,0.18930,3.93310,NAN,NAN,10.00000
4140,0x000E,1,FALSE,206.313,0.82097,0.18930,3.93200,NAN,NAN,9.90000
4190,0x000E,1,FALSE,208.754,0.83057,0.18930,3.93090,NAN,NAN,9.80000
4240,0x000E,1,FALSE,211.244,0.84035,0.18930,3.92980,NAN,NAN,10.10000
4290,0x000E,1,FALSE,213.785,0.85034,0.18930,3.92890,NAN,NAN,10.30000
4340,0x000E,1,FALSE,216.226,0.85993,0.18930,3.92810,NAN,NAN,10.50000
4390,0x000E,1,FALSE,218.766,0.86990,0.18930,3.92740,NAN,NAN,10.60000
4440,0x000E,1,FALSE,221.207,0.87949,0.18930,3.92660,NAN,NAN,10.40000
4490,0x000E,1,FALSE,223.746,0.88946,0.18930,3.92560,NAN,NAN,9.80000
4540,0x000E,1,FALSE,226.186,0.89903,0.18930,3.92450,NAN,NAN,9.80000
4590,0x000E,1,FALSE,228.727,0.90900,0.18930,3.92340,NAN,NAN,9.90000
4640,0x000E,1,FALSE,231.167,0.91857,0.18930,3.92240,NAN,NAN,10.00000
4690,0x000E,1,FALSE,233.658,0.92834,0.18930,3.92140,NAN,NAN,10.10000
4740,0x000E,1,FALSE,236.198,0.93830,0.18930,3.92030,NAN,NAN,9.90000
4790,0x000E,1,FALSE,238.639,0.94787,0.18930,3.91930,NAN,NAN,10.00000
4840,0x000E,1,FALSE,241.18,0.95782,0.18930,3.91830,NAN,NAN,10.30000
4890,0x000E,1,FALSE,243.62,0.96738,0.18930,3.91750,NAN,NAN,10.50000
4940,0x000E,1,FALSE,246.161,0.97733,0.18930,3.91680,NAN,NAN,10.60000
4990,0x000E,1,FALSE,248.602,0.98689,0.18930,3.91610,NAN,NAN,10.60000
5040,0x000E,1,FALSE,251.142,0.99684,0.18930,3.91520,NAN,NAN,10.10000
5090,0x000E,1,FALSE,253.584,1.00640,0.18930,3.91400,NAN,NAN,9.70000
5140,0x000E,1,FALSE,256.077,1.01615,0.18930,3.91300,NAN,NAN,9.90000
5190,0x000E,1,FALSE,258.618,1.02610,0.18930,3.91190,NAN,NAN,10.00000
5240,0x000E,1,FALSE,261.059,1.03564,0.18930,3.91090,NAN,NAN,10.10000
5290,0x000E,1,FALSE,263.601,1.04558,0.18930,3.90990,NAN,NAN,9.90000
5340,0x000E,1,FALSE,266.043,1.05513,0.18930,3.90880,NAN,NAN,9.90000
5390,0x000E,1,FALSE,268.584,1.06506,0.18930,3.90780,NAN,NAN,10.10000
5440,0x000E,1,FALSE,271.024,1.07459,0.18930,3.90690,NAN,NAN,10.40000
5490,0x000E,1,FALSE,273.565,1.08452,0.18930,3.90610,NAN,NAN,10.50000
5540,0x000E,1,FALSE,276.006,1.09405,0.18930,3.90550,NAN,NAN,10.60000
5590,0x000E,1,FALSE,278.498,1.10378,0.18930,3.90470,NAN,NAN,10.50000
5640,0x000E,1,FALSE,281.038,1.11370,0.18930,3.90370,NAN,NAN,9.80000
5690,0x000E,1,FALSE,283.48,1.12323,0.18930,3.90260,NAN,NAN,9.80000
5740,0x000E,1,FALSE,286.021,1.13314,0.18930,3.90150,NAN,NAN,10.00000
5790,0x000E,1,FALSE,288.462,1.14267,0.18930,3.90050,NAN,NAN,10.10000
5840,0x000E,1,FALSE,291.003,1.15257,0.18930,3.89950,NAN,NAN,10.10000
5890,0x000E,1,FALSE,293.444,1.16209,0.18930,3.89850,NAN,NAN,9.90000
5940,0x000E,1,FALSE,295.986,1.17200,0.18930,3.89740,NAN,NAN,10.00000
5990,0x000E,1,FALSE,298.427,1.18151,0.18930,3.89650,NAN,NAN,10.30000
6040,0x000E,1,FALSE,300.919,1.19122,0.18930,3.89570,NAN,NAN,10.50000
6090,0x000E,1,FALSE,303.459,1.20111,0.18930,3.89490,NAN,NAN,10.60000
6140,0x000E,1,FALSE,305.9,1.21062,0.18930,3.89420,NAN,NAN,10.70000
6190,0x000E,1,FALSE,308.441,1.22051,0.18930,3.89340,NAN,NAN,10.10000
6240,0x000E,1,FALSE,310.882,1.23001,0.18930,3.89230,NAN,NAN,9.70000
6290,0x000E,1,FALSE,313.424,1.23990,0.18930,3.89120,NAN,NAN,9.90000
6340,0x000E,1,FALSE,315.864,1.24940,0.18930,3.89020,NAN,NAN,10.00000
6390,0x000E,1,FALSE,318.355,1.25909,0.18930,3.88920,NAN,NAN,10.10000
6440,0x000E,1,FALSE,320.896,1.26896,0.18930,3.88810,NAN,NAN,9.90000
6490,0x000E,1,FALSE,323.337,1.27845,0.18930,3.88700,NAN,NAN,9.90000
6540,0x000E,1,FALSE,325.878,1.28833,0.18930,3.88600,NAN,NAN,10.20000
6590,0x000E,1,FALSE,328.319,1.29781,0.18930,3.88510,NAN,NAN,10.40000
6640,0x000E,1,FALSE,330.86,1.30768,0.18930,3.88440,NAN,NAN,10.60000
6690,0x000E,1,FALSE,333.301,1.31716,0.18930,3.88370,NAN,NAN,10.70000
6740,0x000E,1,FALSE,335.842,1.32703,0.18930,3.88290,NAN,NAN,10.40000
6790,0x000E,1,FALSE,338.284,1.33651,0.18930,3.88190,NAN,NAN,9.80000
6840,0x000E,1,FALSE,340.776,1.34618,0.18930,3.88070,NAN,NAN,9.80000
6890,0x000E,1,FALSE,343.317,1.35604,0.18930,3.87970,NAN,NAN,10.00000
6940,0x000E,1,FALSE,345.76,1.36552,0.18930,3.87860,NAN,NAN,10.10000
6990,0x000E,1,FALSE,348.301,1.37537,0.18930,3.87770,NAN,NAN,10.10000
7040,0x000E,1,FALSE,350.743,1.38484,0.18930,3.87650,NAN,NAN,9.90000
7090,0x000E,1,FALSE,353.283,1.39468,0.18930,3.87550,NAN,NAN,10.10000
7140,0x000E,1,FALSE,355.724,1.40414,0.18930,3.87450,NAN,NAN,10.30000
7190,0x000E,1,FALSE,358.265,1.41398,0.18930,3.87370,NAN,NAN,10.50000
7240,0x000E,1,FALSE,360.705,1.42344,0.18930,3.87300,NAN,NAN,10.60000
7290,0x000E,1,FALSE,363.196,1.43308,0.18930,3.87220,NAN,NAN,10.60000
7340,0x000E,1,FALSE,365.736,1.44292,0.18930,3.87130,NAN,NAN,10.10000
7390,0x000E,1,FALSE,368.178,1.45237,0.18930,3.87010,NAN,NAN,9.70000
7440,0x000E,1,FALSE,370.719,1.46220,0.18930,3.86900,NAN,NAN,10.00000
7490,0x000E,1,FALSE,373.161,1.47164,0.18930,3.86790,NAN,NAN,10.10000
7540,0x000E,1,FALSE,375.702,1.48147,0.18930,3.86690,NAN,NAN,10.10000
7590,0x000E,1,FALSE,378.142,1.49090,0.18930,3.86580,NAN,NAN,9.90000
7640,0x000E,1,FALSE,380.683,1.50072,0.18930,3.86470,NAN,NAN,10.00000
7690,0x000E,1,FALSE,383.123,1.51015,0.18930,3.86360,NAN,NAN,10.20000
7740,0x000E,1,FALSE,385.614,1.51977,0.18930,3.86270,NAN,NAN,10.40000
7790,0x000E,1,FALSE,388.154,1.52958,0.18930,3.86190,NAN,NAN,10.60000
7840,0x000E,1,FALSE,390.595,1.53901,0.18930,3.86110,NAN,NAN,10.70000
7890,0x000E,1,FALSE,393.136,1.54882,0.18930,3.86030,NAN,NAN,10.50000
7940,0x000E,1,FALSE,395.576,1.55824,0.18930,3.85920,NAN,NAN,9.90000
7990,0x000E,1,FALSE,398.117,1.56804,0.18930,3.85800,NAN,NAN,9.80000
8040,0x000E,1,FALSE,400.559,1.57746,0.18930,3.85680,NAN,NAN,10.00000
8090,0x000E,1,FALSE,403.099,1.58725,0.18930,3.85570,NAN,NAN,10.10000
8140,0x000E,1,FALSE,405.54,1.59666,0.18930,3.85460,NAN,NAN,10.20000
8190,0x000E,1,FALSE,408.03,1.60626,0.18930,3.85350,NAN,NAN,9.90000
8240,0x000E,1,FALSE,410.57,1.61604,0.18930,3.85230,NAN,NAN,10.00000
8290,0x000E,1,FALSE,413.011,1.62545,0.18930,3.85120,NAN,NAN,10.30000
8340,0x000E,1,FALSE,415.552,1.63523,0.18930,3.85030,NAN,NAN,10.50000
8390,0x000E,1,FALSE,417.995,1.64463,0.18930,3.84950,NAN,NAN,10.70000
8440,0x000E,1,FALSE,420.537,1.65442,0.18930,3.84860,NAN,NAN,10.70000
8490,0x000E,1,FALSE,422.978,1.66381,0.18930,3.84760,NAN,NAN,10.20000
8540,0x000E,1,FALSE,425.469,1.67339,0.18930,3.84640,NAN,NAN,9.70000
8590,0x000E,1,FALSE,428.011,1.68317,0.18930,3.84520,NAN,NAN,10.00000
8640,0x000E,1,FALSE,430.453,1.69255,0.18930,3.84400,NAN,NAN,10.10000
8690,0x000E,1,FALSE,432.994,1.70232,0.18930,3.84280,NAN,NAN,10.20000
8740,0x000E,1,FALSE,435.436,1.71170,0.18930,3.84170,NAN,NAN,10.00000
8790,0x000E,1,FALSE,437.978,1.72147,0.18930,3.84040,NAN,NAN,10.00000
8840,0x000E,1,FALSE,440.42,1.73084,0.18930,3.83920,NAN,NAN,10.20000
8890,0x000E,1,FALSE,442.961,1.74060,0.18930,3.83820,NAN,NAN,10.40000
8940,0x000E,1,FALSE,445.403,1.74996,0.18930,3.83730,NAN,NAN,10.60000
8990,0x000E,1,FALSE,447.895,1.75952,0.18930,3.83640,NAN,NAN,10.70000
9040,0x000E,1,FALSE,450.437,1.76927,0.18930,3.83550,NAN,NAN,10.60000
9090,0x000E,1,FALSE,452.878,1.77864,0.18930,3.83430,NAN,NAN,10.00000
9140,0x000E,1,FALSE,455.418,1.78837,0.18930,3.83300,NAN,NAN,9.80000
9190,0x000E,1,FALSE,457.86,1.79773,0.18930,3.83180,NAN,NAN,10.00000
9240,0x000E,1,FALSE,460.4,1.80746,0.18930,3.83060,NAN,NAN,10.10000
9290,0x000E,1,FALSE,462.842,1.81681,0.18930,3.82940,NAN,NAN,10.20000
9340,0x000E,1,FALSE,465.382,1.82654,0.18930,3.82820,NAN,NAN,10.00000
9390,0x000E,1,FALSE,467.823,1.83588,0.18930,3.82700,NAN,NAN,10.00000
9440,0x000E,1,FALSE,470.313,1.84541,0.18930,3.82580,NAN,NAN,10.30000
9490,0x000E,1,FALSE,472.853,1.85512,0.18930,3.82480,NAN,NAN,10.50000
9540,0x000E,1,FALSE,475.293,1.86446,0.18930,3.82390,NAN,NAN,10.70000
9590,0x000E,1,FALSE,477.834,1.87417,0.18930,3.82300,NAN,NAN,10.70000
9640,0x000E,1,FALSE,480.274,1.88350,0.18930,3.82200,NAN,NAN,10.20000
9690,0x000E,1,FALSE,482.814,1.89320,0.18930,3.82080,NAN,NAN,9.80000
9740,0x000E,1,FALSE,485.255,1.90253,0.18930,3.81960,NAN,NAN,10.00000
9790,0x000E,1,FALSE,487.795,1.91223,0.18930,3.81840,NAN,NAN,10.10000
9840,0x000E,1,FALSE,490.236,1.92154,0.18930,3.81730,NAN,NAN,10.20000
9890,0x000E,1,FALSE,492.727,1.93105,0.18930,3.81620,NAN,NAN,10.00000
9940,0x000E,1,FALSE,495.268,1.94074,0.18930,3.81490,NAN,NAN,10.00000
9990,0x000E,1,FALSE,497.708,1.95005,0.18930,3.81380,NAN,NAN,10.20000
10040,0x000E,1,FALSE,500.248,1.95974,0.18930,3.81290,NAN,NAN,10.40000
10090,0x000E,1,FALSE,502.688,1.96904,0.18930,3.81200,NAN,NAN,10.60000
10140,0x000E,1,FALSE,505.228,1.97872,0.18930,3.81120,NAN,NAN,10.70000
10190,0x000E,1,FALSE,507.668,1.98802,0.18930,3.81040,NAN,NAN,10.50000
10240,0x000E,1,FALSE,510.208,1.99769,0.18930,3.80940,NAN,NAN,9.90000
10290,0x000E,1,FALSE,512.648,2.00698,0.18930,3.80820,NAN,NAN,9.90000
10340,0x000E,1,FALSE,515.138,2.01646,0.18930,3.80710,NAN,NAN,10.10000
10390,0x000E,1,FALSE,517.678,2.02613,0.18930,3.80610,NAN,NAN,10.10000
10440,0x000E,1,FALSE,520.118,2.03542,0.18930,3.80510,NAN,NAN,10.20000
10490,0x000E,1,FALSE,522.659,2.04508,0.18930,3.80410,NAN,NAN,9.90000
10540,0x000E,1,FALSE,525.101,2.05437,0.18930,3.80300,NAN,NAN,10.00000
10590,0x000E,1,FALSE,527.642,2.06403,0.18930,3.80210,NAN,NAN,10.30000
10640,0x000E,1,FALSE,530.082,2.07331,0.18930,3.80140,NAN,NAN,10.50000
10690,0x000E,1,FALSE,532.573,2.08278,0.18930,3.80070,NAN,NAN,10.70000
10740,0x000E,1,FALSE,535.113,2.09243,0.18930,3.80010,NAN,NAN,10.60000
10790,0x000E,1,FALSE,537.554,2.10171,0.18930,3.79920,NAN,NAN,10.00000
10840,0x000E,1,FALSE,540.094,2.11135,0.18930,3.79820,NAN,NAN,9.80000
10890,0x000E,1,FALSE,542.534,2.12062,0.18930,3.79730,NAN,NAN,10.00000
10940,0x000E,1,FALSE,545.074,2.13026,0.18930,3.79640,NAN,NAN,10.10000
10990,0x000E,1,FALSE,547.516,2.13953,0.18930,3.79560,NAN,NAN,10.20000
11040,0x000E,1,FALSE,550.057,2.14917,0.18930,3.79470,NAN,NAN,10.00000
11090,0x000E,1,FALSE,552.498,2.15843,0.18930,3.79370,NAN,NAN,10.00000
11140,0x000E,1,FALSE,554.989,2.16788,0.18930,3.79300,NAN,NAN,10.20000
11190,0x000E,1,FALSE,557.529,2.17751,0.18930,3.79230,NAN,NAN,10.50000
11240,0x000E,1,FALSE,559.97,2.18677,0.18930,3.79180,NAN,NAN,10.60000
11290,0x000E,1,FALSE,562.512,2.19641,0.18930,3.79120,NAN,NAN,10.70000
11340,0x000E,1,FALSE,564.952,2.20566,0.18930,3.79060,NAN,NAN,10.30000
11390,0x000E,1,FALSE,567.492,2.21529,0.18930,3.78980,NAN,NAN,9.80000
11440,0x000E,1,FALSE,569.933,2.22453,0.18930,3.78890,NAN,NAN,9.90000
11490,0x000E,1,FALSE,572.474,2.23416,0.18930,3.78810,NAN,NAN,10.00000
11540,0x000E,1,FALSE,574.914,2.24340,0.18930,3.78740,NAN,NAN,10.10000
11590,0x000E,1,FALSE,577.405,2.25283,0.18930,3.78670,NAN,NAN,10.00000
11640,0x000E,1,FALSE,579.946,2.26245,0.18930,3.78580,NAN,NAN,9.90000
11690,0x000E,1,FALSE,582.386,2.27169,0.18930,3.78510,NAN,NAN,10.10000
11740,0x000E,1,FALSE,584.926,2.28130,0.18930,3.78450,NAN,NAN,10.40000
11790,0x000E,1,FALSE,587.367,2.29054,0.18930,3.78400,NAN,NAN,10.50000
11840,0x000E,1,FALSE,589.907,2.30015,0.18930,3.78360,NAN,NAN,10.70000
11890,0x000E,1,FALSE,592.348,2.30938,0.18930,3.78310,NAN,NAN,10.50000
11940,0x000E,1,FALSE,594.889,2.31899,0.18930,3.78240,NAN,NAN,9.90000
11990,0x000E,1,FALSE,597.33,2.32823,0.18930,3.78160,NAN,NAN,9.80000
12040,0x000E,1,FALSE,599.822,2.33765,0.18930,3.78090,NAN,NAN,10.00000
12090,0x000E,1,FALSE,602.363,2.34725,0.18930,3.78030,NAN,NAN,10.10000
12140,0x000E,1,FALSE,604.803,2.35648,0.18930,3.77960,NAN,NAN,10.20000
12190,0x000E,1,FALSE,607.344,2.36608,0.18930,3.77890,NAN,NAN,9.90000
12240,0x000E,1,FALSE,609.785,2.37530,0.18930,3.77820,NAN,NAN,10.00000
12290,0x000E,1,FALSE,612.326,2.38490,0.18930,3.77760,NAN,NAN,10.30000
12340,0x000E,1,FALSE,614.768,2.39412,0.18930,3.77710,NAN,NAN,10.50000
12390,0x000E,1,FALSE,617.309,2.40372,0.18930,3.77680,NAN,NAN,10.60000
12440,0x000E,1,FALSE,619.749,2.41293,0.18930,3.77640,NAN,NAN,10.70000
12490,0x000E,1,FALSE,622.241,2.42234,0.18930,3.77590,NAN,NAN,10.30000
12540,0x000E,1,FALSE,624.782,2.43194,0.18930,3.77520,NAN,NAN,9.70000
12590,0x000E,1,FALSE,627.223,2.44115,0.18930,3.77450,NAN,NAN,9.90000
12640,0x000E,1,FALSE,629.764,2.45074,0.18930,3.77380,NAN,NAN,10.00000
12690,0x000E,1,FALSE,632.205,2.45995,0.18930,3.77320,NAN,NAN,10.10000
12740,0x000E,1,FALSE,634.747,2.46954,0.18930,3.77260,NAN,NAN,10.00000
12790,0x000E,1,FALSE,637.19,2.47875,0.18930,3.77200,NAN,NAN,9.90000
12840,0x000E,1,FALSE,639.732,2.48834,0.18930,3.77130,NAN,NAN,10.00000
12890,0x000E,1,FALSE,642.173,2.49755,0.18930,3.77090,NAN,NAN,10.30000
12940,0x000E,1,FALSE,644.665,2.50694,0.18930,3.77050,NAN,NAN,10.50000
12990,0x000E,1,FALSE,647.207,2.51652,0.18930,3.77020,NAN,NAN,10.60000
13040,0x000E,1,FALSE,649.649,2.52573,0.18930,3.76990,NAN,NAN,10.60000
13090,0x000E,1,FALSE,652.191,2.53531,0.18930,3.76930,NAN,NAN,10.00000
13140,0x000E,1,FALSE,654.634,2.54452,0.18930,3.76870,NAN,NAN,9.80000
13190,0x000E,1,FALSE,657.177,2.55410,0.18930,3.76810,NAN,NAN,10.00000
13240,0x000E,1,FALSE,659.619,2.56330,0.18930,3.76750,NAN,NAN,10.10000
13290,0x000E,1,FALSE,662.11,2.57269,0.18930,3.76700,NAN,NAN,10.10000
13340,0x000E,1,FALSE,664.651,2.58226,0.18930,3.76640,NAN,NAN,9.90000
13390,0x000E,1,FALSE,667.092,2.59145,0.18930,3.76580,NAN,NAN,10.00000
13440,0x000E,1,FALSE,669.633,2.60101,0.18930,3.76530,NAN,NAN,10.20000
13490,0x000E,1,FALSE,672.074,2.61020,0.18930,3.76490,NAN,NAN,10.40000
13540,0x000E,1,FALSE,674.615,2.61977,0.18930,3.76450,NAN,NAN,10.60000
13590,0x000E,1,FALSE,677.055,2.62896,0.18930,3.76430,NAN,NAN,10.70000
13640,0x000E,1,FALSE,679.596,2.63852,0.18930,3.76400,NAN,NAN,10.40000
13690,0x000E,1,FALSE,682.037,2.64771,0.18930,3.76340,NAN,NAN,9.80000
13740,0x000E,1,FALSE,684.529,2.65708,0.18930,3.76280,NAN,NAN,9.80000
13790,0x000E,1,FALSE,687.07,2.66664,0.18930,3.76220,NAN,NAN,10.00000
13840,0x000E,1,FALSE,689.511,2.67582,0.18930,3.76170,NAN,NAN,10.10000
13890,0x000E,1,FALSE,692.052,2.68538,0.18930,3.76110,NAN,NAN,10.10000
13940,0x000E,1,FALSE,694.492,2.69456,0.18930,3.76060,NAN,NAN,9.90000
13990,0x000E,1,FALSE,697.033,2.70411,0.18930,3.76000,NAN,NAN,10.00000
14040,0x000E,1,FALSE,699.476,2.71329,0.18930,3.75960,NAN,NAN,10.30000
14090,0x000E,1,FALSE,702.018,2.72285,0.18930,3.75930,NAN,NAN,10.50000
14140,0x000E,1,FALSE,704.46,2.73203,0.18930,3.75910,NAN,NAN,10.60000
14190,0x000E,1,FALSE,706.95,2.74139,0.18930,3.75880,NAN,NAN,10.60000
14240,0x000E,1,FALSE,709.492,2.75094,0.18930,3.75840,NAN,NAN,10.00000
14290,0x000E,1,FALSE,711.934,2.76012,0.18930,3.75780,NAN,NAN,9.80000
14340,0x000E,1,FALSE,714.474,2.76966,0.18930,3.75720,NAN,NAN,10.00000
14390,0x000E,1,FALSE,716.915,2.77883,0.18930,3.75670,NAN,NAN,10.10000
14440,0x000E,1,FALSE,719.457,2.78838,0.18930,3.75630,NAN,NAN,10.10000
14490,0x000E,1,FALSE,721.9,2.79755,0.18930,3.75580,NAN,NAN,9.90000
14540,0x000E,1,FALSE,724.44,2.80710,0.18930,3.75520,NAN,NAN,10.00000
14590,0x000E,1,FALSE,726.88,2.81626,0.18930,3.75480,NAN,NAN,10.20000
14640,0x000E,1,FALSE,729.372,2.82561,0.18930,3.75450,NAN,NAN,10.40000
14690,0x000E,1,FALSE,731.913,2.83515,0.18930,3.75420,NAN,NAN,10.60000
14740,0x000E,1,FALSE,734.355,2.84432,0.18930,3.75410,NAN,NAN,10.70000
14790,0x000E,1,FALSE,736.896,2.85385,0.18930,3.75380,NAN,NAN,10.30000
14840,0x000E,1,FALSE,739.337,2.86302,0.18930,3.75330,NAN,NAN,9.80000
14890,0x000E,1,FALSE,741.877,2.87255,0.18930,3.75270,NAN,NAN,9.90000
14940,0x000E,1,FALSE,744.318,2.88171,0.18930,3.75220,NAN,NAN,10.00000
14990,0x000E,1,FALSE,746.858,2.89124,0.18930,3.75180,NAN,NAN,10.10000
15040,0x000E,1,FALSE,749.299,2.90039,0.18930,3.75140,NAN,NAN,10.00000
15090,0x000E,1,FALSE,751.789,2.90974,0.18930,3.75080,NAN,NAN,9.90000
15140,0x000E,1,FALSE,754.329,2.91926,0.18930,3.75040,NAN,NAN,10.10000
15190,0x000E,1,FALSE,756.77,2.92841,0.18930,3.75000,NAN,NAN,10.30000
15240,0x000E,1,FALSE,759.31,2.93794,0.18930,3.74980,NAN,NAN,10.50000
15290,0x000E,1,FALSE,761.751,2.94709,0.18930,3.74960,NAN,NAN,10.60000
15340,0x000E,1,FALSE,764.291,2.95661,0.18930,3.74940,NAN,NAN,10.60000
15390,0x000E,1,FALSE,766.731,2.96576,0.18930,3.74910,NAN,NAN,10.10000
15440,0x000E,1,FALSE,769.22,2.97509,0.18930,3.74850,NAN,NAN,9.80000
15490,0x000E,1,FALSE,771.761,2.98461,0.18930,3.74800,NAN,NAN,10.00000
15540,0x000E,1,FALSE,774.201,2.99376,0.18930,3.74760,NAN,NAN,10.10000
15590,0x000E,1,FALSE,776.742,3.00328,0.18930,3.74720,NAN,NAN,10.20000
15640,0x000E,1,FALSE,779.183,3.01243,0.18930,3.74680,NAN,NAN,10.00000
15690,0x000E,1,FALSE,781.723,3.02194,0.18930,3.74630,NAN,NAN,10.00000
15740,0x000E,1,FALSE,784.164,3.03109,0.18930,3.74600,NAN,NAN,10.20000
15790,0x000E,1,FALSE,786.704,3.04060,0.18930,3.74570,NAN,NAN,10.40000
15840,0x000E,1,FALSE,789.145,3.04974,0.18930,3.74550,NAN,NAN,10.60000
15890,0x000E,1,FALSE,791.635,3.05907,0.18930,3.74540,NAN,NAN,10.70000
15940,0x000E,1,FALSE,794.175,3.06858,0.18930,3.74510,NAN,NAN,10.40000
15990,0x000E,1,FALSE,796.616,3.07772,0.18930,3.74480,NAN,NAN,9.90000
16040,0x000E,1,FALSE,799.156,3.08723,0.18930,3.74420,NAN,NAN,9.90000
16090,0x000E,1,FALSE,801.596,3.09637,0.18930,3.74390,NAN,NAN,10.00000
16140,0x000E,1,FALSE,804.137,3.10588,0.18930,3.74340,NAN,NAN,10.10000
16190,0x000E,1,FALSE,806.577,3.11501,0.18930,3.74310,NAN,NAN,10.10000
16240,0x000E,1,FALSE,809.117,3.12452,0.18930,3.74260,NAN,NAN,9.90000
16290,0x000E,1,FALSE,811.558,3.13365,0.18930,3.74220,NAN,NAN,10.00000
16340,0x000E,1,FALSE,814.048,3.14297,0.18930,3.74190,NAN,NAN,10.30000
16390,0x000E,1,FALSE,816.588,3.15247,0.18930,3.74170,NAN,NAN,10.50000
16440,0x000E,1,FALSE,819.028,3.16160,0.18930,3.74150,NAN,NAN,10.60000
16490,0x000E,1,FALSE,821.567,3.17110,0.18930,3.74140,NAN,NAN,10.70000
16540,0x000E,1,FALSE,824.008,3.18023,0.18930,3.74120,NAN,NAN,10.20000
16590,0x000E,1,FALSE,826.548,3.18973,0.18930,3.74070,NAN,NAN,9.70000
16640,0x000E,1,FALSE,828.989,3.19886,0.18930,3.74030,NAN,NAN,10.00000
16690,0x000E,1,FALSE,831.529,3.20836,0.18930,3.74000,NAN,NAN,10.10000
16740,0x000E,1,FALSE,833.969,3.21749,0.18930,3.73960,NAN,NAN,10.20000
16790,0x000E,1,FALSE,836.46,3.22680,0.18930,3.73930,NAN,NAN,10.00000
16840,0x000E,1,FALSE,838.999,3.23629,0.18930,3.73890,NAN,NAN,10.00000
16890,0x000E,1,FALSE,841.439,3.24541,0.18930,3.73850,NAN,NAN,10.20000
16940,0x000E,1,FALSE,843.979,3.25491,0.18930,3.73830,NAN,NAN,10.40000
16990,0x000E,1,FALSE,846.419,3.26403,0.18930,3.73820,NAN,NAN,10.60000
17040,0x000E,1,FALSE,848.959,3.27352,0.18930,3.73810,NAN,NAN,10.70000
17090,0x000E,1,FALSE,851.399,3.28264,0.18920,3.73800,NAN,NAN,10.70000
17140,0x000E,1,FALSE,853.939,3.29214,0.18930,3.73770,NAN,NAN,10.10000
17190,0x000E,1,FALSE,856.379,3.30126,0.18920,3.73730,NAN,NAN,9.80000
17240,0x000E,1,FALSE,858.87,3.31056,0.18930,3.73690,NAN,NAN,10.00000
17290,0x000E,1,FALSE,861.409,3.32005,0.18930,3.73660,NAN,NAN,10.10000
17340,0x000E,1,FALSE,863.85,3.32917,0.18920,3.73630,NAN,NAN,10.20000
17390,0x000E,1,FALSE,866.389,3.33866,0.18920,3.73590,NAN,NAN,10.00000
17440,0x000E,1,FALSE,868.83,3.34777,0.18920,3.73560,NAN,NAN,10.00000
17490,0x000E,1,FALSE,871.37,3.35726,0.18930,3.73530,NAN,NAN,10.20000
17540,0x000E,1,FALSE,873.81,3.36638,0.18930,3.73510,NAN,NAN,10.50000
17590,0x000E,1,FALSE,876.3,3.37567,0.18930,3.73500,NAN,NAN,10.60000
17640,0x000E,1,FALSE,878.84,3.38516,0.18930,3.73490,NAN,NAN,10.70000
17690,0x000E,1,FALSE,881.281,3.39428,0.18930,3.73480,NAN,NAN,10.40000
17740,0x000E,1,FALSE,883.821,3.40376,0.18930,3.73450,NAN,NAN,9.90000
17790,0x000E,1,FALSE,886.262,3.41288,0.18930,3.73410,NAN,NAN,9.90000
17840,0x000E,1,FALSE,888.802,3.42236,0.18930,3.73380,NAN,NAN,10.10000
17890,0x000E,1,FALSE,891.243,3.43147,0.18930,3.73350,NAN,NAN,10.20000
17940,0x000E,1,FALSE,893.783,3.44096,0.18930,3.73330,NAN,NAN,10.20000
17990,0x000E,1,FALSE,896.224,3.45007,0.18930,3.73290,NAN,NAN,9.90000
18040,0x000E,1,FALSE,898.714,3.45936,0.18930,3.73260,NAN,NAN,10.10000
18090,0x000E,1,FALSE,901.255,3.46884,0.18930,3.73240,NAN,NAN,10.40000
18140,0x000E,1,FALSE,903.696,3.47795,0.18930,3.73230,NAN,NAN,10.50000
18190,0x000E,1,FALSE,906.236,3.48743,0.18930,3.73220,NAN,NAN,10.70000
18240,0x000E,1,FALSE,908.676,3.49654,0.18930,3.73220,NAN,NAN,10.70000
18290,0x000E,1,FALSE,911.216,3.50602,0.18930,3.73210,NAN,NAN,10.30000
18340,0x000E,1,FALSE,913.657,3.51513,0.18930,3.73170,NAN,NAN,9.80000
18390,0x000E,1,FALSE,916.197,3.52461,0.18930,3.73140,NAN,NAN,10.00000
18440,0x000E,1,FALSE,918.638,3.53371,0.18930,3.73110,NAN,NAN,10.10000
18490,0x000E,1,FALSE,921.128,3.54300,0.18930,3.73080,NAN,NAN,10.20000
18540,0x000E,1,FALSE,923.667,3.55247,0.18930,3.73050,NAN,NAN,10.10000
18590,0x000E,1,FALSE,926.106,3.56157,0.18930,3.73020,NAN,NAN,10.00000
18640,0x000E,1,FALSE,928.646,3.57104,0.18930,3.72990,NAN,NAN,10.20000
18690,0x000E,1,FALSE,931.085,3.58014,0.18930,3.72970,NAN,NAN,10.40000
18740,0x000E,1,FALSE,933.625,3.58961,0.18930,3.72970,NAN,NAN,10.60000
18790,0x000E,1,FALSE,936.064,3.59871,0.18930,3.72960,NAN,NAN,10.70000
18840,0x000E,1,FALSE,938.603,3.60818,0.18930,3.72960,NAN,NAN,10.60000
18890,0x000E,1,FALSE,941.043,3.61728,0.18930,3.72940,NAN,NAN,10.00000
18940,0x000E,1,FALSE,943.532,3.62656,0.18930,3.72900,NAN,NAN,9.90000
18990,0x000E,1,FALSE,946.071,3.63603,0.18930,3.72870,NAN,NAN,10.10000
19040,0x000E,1,FALSE,948.511,3.64512,0.18930,3.72850,NAN,NAN,10.20000
19090,0x000E,1,FALSE,951.051,3.65459,0.18930,3.72820,NAN,NAN,10.20000
19140,0x000E,1,FALSE,953.491,3.66369,0.18930,3.72800,NAN,NAN,10.00000
19190,0x000E,1,FALSE,956.031,3.67316,0.18930,3.72760,NAN,NAN,10.10000
19240,0x000E,1,FALSE,958.472,3.68225,0.18930,3.72740,NAN,NAN,10.30000
19290,0x000E,1,FALSE,961.012,3.69172,0.18930,3.72730,NAN,NAN,10.50000
19340,0x000E,1,FALSE,963.452,3.70082,0.18930,3.72730,NAN,NAN,10.70000
19390,0x000E,1,FALSE,965.943,3.71010,0.18930,3.72730,NAN,NAN,10.80000
19440,0x000E,1,FALSE,968.482,3.71956,0.18930,3.72710,NAN,NAN,10.40000
19490,0x000E,1,FALSE,970.922,3.72865,0.18930,3.72680,NAN,NAN,9.90000
19540,0x000E,1,FALSE,973.461,3.73812,0.18930,3.72640,NAN,NAN,10.00000
19590,0x000E,1,FALSE,975.901,3.74721,0.18930,3.72610,NAN,NAN,10.10000
19640,0x000E,1,FALSE,978.441,3.75667,0.18930,3.72590,NAN,NAN,10.20000
19690,0x000E,1,FALSE,980.88,3.76576,0.18930,3.72560,NAN,NAN,10.10000
19740,0x000E,1,FALSE,983.419,3.77522,0.18930,3.72530,NAN,NAN,10.00000
19790,0x000E,1,FALSE,985.909,3.78449,0.18930,3.72500,NAN,NAN,10.10000
19840,0x000E,1,FALSE,988.347,3.79357,0.18930,3.72480,NAN,NAN,10.40000
19890,0x000E,1,FALSE,990.885,3.80302,0.18920,3.72470,NAN,NAN,10.60000
19940,0x000E,1,FALSE,993.324,3.81211,0.18930,3.72460,NAN,NAN,10.70000
19990,0x000E,1,FALSE,995.862,3.82156,0.18930,3.72460,NAN,NAN,10.70000
20040,0x000E,1,FALSE,998.302,3.83065,0.18930,3.72440,NAN,NAN,10.20000
20090,0x000E,1,FALSE,1000.84,3.84011,0.18930,3.72410,NAN,NAN,9.80000
20140,0x000E,1,FALSE,1003.28,3.84919,0.18930,3.72370,NAN,NAN,10.10000
20190,0x000E,1,FALSE,1005.77,3.85846,0.18930,3.72340,NAN,NAN,10.20000
20240,0x000E,1,FALSE,1008.31,3.86792,0.18930,3.72310,NAN,NAN,10.30000
20290,0x000E,1,FALSE,1010.75,3.87700,0.18930,3.72290,NAN,NAN,10.10000
20340,0x000E,1,FALSE,1013.29,3.88645,0.18930,3.72250,NAN,NAN,10.10000
20390,0x000E,1,FALSE,1015.73,3.89554,0.18930,3.72220,NAN,NAN,10.30000
20440,0x000E,1,FALSE,1018.27,3.90499,0.18930,3.72210,NAN,NAN,10.50000
20490,0x000E,1,FALSE,1020.71,3.91407,0.18930,3.72200,NAN,NAN,10.70000
20540,0x000E,1,FALSE,1023.25,3.92352,0.18930,3.72190,NAN,NAN,10.80000
20590,0x000E,1,FALSE,1025.69,3.93261,0.18930,3.72180,NAN,NAN,10.50000
20640,0x000E,1,FALSE,1028.18,3.94187,0.18930,3.72150,NAN,NAN,10.00000
20690,0x000E,1,FALSE,1030.72,3.95132,0.18930,3.72110,NAN,NAN,10.00000
20740,0x000E,1,FALSE,1033.16,3.96040,0.18930,3.72070,NAN,NAN,10.20000
20790,0x000E,1,FALSE,1035.7,3.96985,0.18930,3.72040,NAN,NAN,10.30000
20840,0x000E,1,FALSE,1038.14,3.97893,0.18930,3.72010,NAN,NAN,10.30000
20890,0x000E,1,FALSE,1040.68,3.98838,0.18930,3.71970,NAN,NAN,10.00000
20940,0x000E,1,FALSE,1043.12,3.99746,0.18930,3.71940,NAN,NAN,10.20000
20990,0x000E,1,FALSE,1045.66,4.00691,0.18930,3.71910,NAN,NAN,10.40000
21040,0x000E,1,FALSE,1048.1,4.01598,0.18930,3.71890,NAN,NAN,10.60000
21090,0x000E,1,FALSE,1050.59,4.02524,0.18930,3.71880,NAN,NAN,10.80000
21140,0x000E,1,FALSE,1053.13,4.03468,0.18930,3.71860,NAN,NAN,10.80000
21190,0x000E,1,FALSE,1055.57,4.04376,0.18930,3.71840,NAN,NAN,10.30000
21240,0x000E,1,FALSE,1058.11,4.05320,0.18930,3.71800,NAN,NAN,9.90000
21290,0x000E,1,FALSE,1060.56,4.06228,0.18930,3.71750,NAN,NAN,10.10000
21340,0x000E,1,FALSE,1063.1,4.07172,0.18930,3.71720,NAN,NAN,10.30000
21390,0x000E,1,FALSE,1065.54,4.08079,0.18930,3.71680,NAN,NAN,10.30000
21440,0x000E,1,FALSE,1068.08,4.09023,0.18930,3.71640,NAN,NAN,10.10000
21490,0x000E,1,FALSE,1070.52,4.09930,0.18930,3.71600,NAN,NAN,10.10000
21540,0x000E,1,FALSE,1073.01,4.10855,0.18930,3.71560,NAN,NAN,10.40000
21590,0x000E,1,FALSE,1075.55,4.11798,0.18930,3.71540,NAN,NAN,10.60000
21640,0x000E,1,FALSE,1077.99,4.12704,0.18930,3.71520,NAN,NAN,10.70000
21690,0x000E,1,FALSE,1080.52,4.13648,0.18930,3.71500,NAN,NAN,10.80000
21740,0x000E,1,FALSE,1082.97,4.14554,0.18930,3.71480,NAN,NAN,10.50000
21790,0x000E,1,FALSE,1085.51,4.15498,0.18930,3.71430,NAN,NAN,10.00000
21840,0x000E,1,FALSE,1087.95,4.16404,0.18930,3.71380,NAN,NAN,10.10000
21890,0x000E,1,FALSE,1090.49,4.17347,0.18930,3.71340,NAN,NAN,10.20000
21940,0x000E,1,FALSE,1092.93,4.18253,0.18930,3.71300,NAN,NAN,10.30000
21990,0x000E,1,FALSE,1095.41,4.19177,0.18930,3.71250,NAN,NAN,10.30000
22040,0x000E,1,FALSE,1097.95,4.20120,0.18930,3.71200,NAN,NAN,10.10000
22090,0x000E,1,FALSE,1100.39,4.21025,0.18930,3.71150,NAN,NAN,10.20000
22140,0x000E,1,FALSE,1102.93,4.21968,0.18930,3.71110,NAN,NAN,10.50000
22190,0x000E,1,FALSE,1105.37,4.22873,0.18930,3.71090,NAN,NAN,10.70000
22240,0x000E,1,FALSE,1107.91,4.23816,0.18930,3.71060,NAN,NAN,10.80000
22290,0x000E,1,FALSE,1110.35,4.24721,0.18930,3.71030,NAN,NAN,10.90000
22340,0x000E,1,FALSE,1112.84,4.25644,0.18920,3.71000,NAN,NAN,10.30000
22390,0x000E,1,FALSE,1115.38,4.26587,0.18930,3.70940,NAN,NAN,9.90000
22440,0x000E,1,FALSE,1117.82,4.27492,0.18930,3.70890,NAN,NAN,10.20000
22490,0x000E,1,FALSE,1120.36,4.28434,0.18930,3.70830,NAN,NAN,10.30000
22540,0x000E,1,FALSE,1122.8,4.29338,0.18930,3.70780,NAN,NAN,10.40000
22590,0x000E,1,FALSE,1125.34,4.30280,0.18930,3.70730,NAN,NAN,10.20000
22640,0x000E,1,FALSE,1127.78,4.31185,0.18930,3.70670,NAN,NAN,10.20000
22690,0x000E,1,FALSE,1130.32,4.32126,0.18930,3.70620,NAN,NAN,10.40000
22740,0x000E,1,FALSE,1132.76,4.33030,0.18930,3.70580,NAN,NAN,10.60000
22790,0x000E,1,FALSE,1135.25,4.33953,0.18930,3.70540,NAN,NAN,10.80000
22840,0x000E,1,FALSE,1137.79,4.34894,0.18930,3.70510,NAN,NAN,10.90000
22890,0x000E,1,FALSE,1140.23,4.35798,0.18930,3.70460,NAN,NAN,10.60000
22940,0x000E,1,FALSE,1142.77,4.36739,0.18930,3.70410,NAN,NAN,10.10000
22990,0x000E,1,FALSE,1145.22,4.37643,0.18930,3.70340,NAN,NAN,10.10000
23040,0x000E,1,FALSE,1147.76,4.38584,0.18930,3.70280,NAN,NAN,10.30000
23090,0x000E,1,FALSE,1150.2,4.39488,0.18930,3.70220,NAN,NAN,10.40000
23140,0x000E,1,FALSE,1152.74,4.40429,0.18930,3.70160,NAN,NAN,10.40000
23190,0x000E,1,FALSE,1155.18,4.41333,0.18930,3.70090,NAN,NAN,10.20000
23240,0x000E,1,FALSE,1157.68,4.42255,0.18930,3.70020,NAN,NAN,10.30000
23290,0x000E,1,FALSE,1160.22,4.43195,0.18930,3.69970,NAN,NAN,10.50000
23340,0x000E,1,FALSE,1162.66,4.44098,0.18930,3.69920,NAN,NAN,10.70000
23390,0x000E,1,FALSE,1165.2,4.45038,0.18930,3.69870,NAN,NAN,10.90000
23440,0x000E,1,FALSE,1167.64,4.45941,0.18930,3.69830,NAN,NAN,10.90000
23490,0x000E,1,FALSE,1170.18,4.46881,0.18930,3.69770,NAN,NAN,10.40000
23540,0x000E,1,FALSE,1172.62,4.47783,0.18930,3.69700,NAN,NAN,10.00000
23590,0x000E,1,FALSE,1175.16,4.48723,0.18930,3.69620,NAN,NAN,10.20000
23640,0x000E,1,FALSE,1177.61,4.49625,0.18930,3.69550,NAN,NAN,10.40000
23690,0x000E,1,FALSE,1180.1,4.50545,0.18930,3.69480,NAN,NAN,10.40000
23740,0x000E,1,FALSE,1182.64,4.51483,0.18930,3.69400,NAN,NAN,10.30000
23790,0x000E,1,FALSE,1185.08,4.52384,0.18930,3.69320,NAN,NAN,10.20000
23840,0x000E,1,FALSE,1187.62,4.53322,0.18930,3.69250,NAN,NAN,10.50000
23890,0x000E,1,FALSE,1190.06,4.54223,0.18930,3.69190,NAN,NAN,10.70000
23940,0x000E,1,FALSE,1192.6,4.55161,0.18930,3.69130,NAN,NAN,10.80000
23990,0x000E,1,FALSE,1195.04,4.56062,0.18930,3.69070,NAN,NAN,11.00000
24040,0x000E,1,FALSE,1197.58,4.56999,0.18930,3.69010,NAN,NAN,10.60000
24090,0x000E,1,FALSE,1200.02,4.57899,0.18930,3.68930,NAN,NAN,10.10000
24140,0x000E,1,FALSE,1202.51,4.58817,0.18930,3.68830,NAN,NAN,10.20000
24190,0x000E,1,FALSE,1205.05,4.59754,0.18930,3.68740,NAN,NAN,10.40000
24240,0x000E,1,FALSE,1207.49,4.60653,0.18930,3.68660,NAN,NAN,10.40000
24290,0x000E,1,FALSE,1210.03,4.61589,0.18930,3.68570,NAN,NAN,10.40000
24340,0x000E,1,FALSE,1212.47,4.62489,0.18930,3.68480,NAN,NAN,10.20000
24390,0x000E,1,FALSE,1215.01,4.63425,0.18930,3.68370,NAN,NAN,10.40000
24440,0x000E,1,FALSE,1217.45,4.64323,0.18930,3.68290,NAN,NAN,10.60000
24490,0x000E,1,FALSE,1219.94,4.65240,0.18930,3.68210,NAN,NAN,10.80000
24540,0x000E,1,FALSE,1222.48,4.66175,0.18930,3.68130,NAN,NAN,10.90000
24590,0x000E,1,FALSE,1224.92,4.67073,0.18930,3.68060,NAN,NAN,10.90000
24640,0x000E,1,FALSE,1227.46,4.68008,0.18930,3.67960,NAN,NAN,10.40000
24690,0x000E,1,FALSE,1229.9,4.68906,0.18930,3.67850,NAN,NAN,10.00000
24740,0x000E,1,FALSE,1232.44,4.69840,0.18930,3.67730,NAN,NAN,10.30000
24790,0x000E,1,FALSE,1234.88,4.70737,0.18930,3.67620,NAN,NAN,10.40000
24840,0x000E,1,FALSE,1237.42,4.71670,0.18930,3.67510,NAN,NAN,10.50000
24890,0x000E,1,FALSE,1239.86,4.72567,0.18930,3.67400,NAN,NAN,10.30000
24940,0x000E,1,FALSE,1242.35,4.73482,0.18930,3.67280,NAN,NAN,10.30000
24990,0x000E,1,FALSE,1244.89,4.74414,0.18930,3.67160,NAN,NAN,10.50000
25040,0x000E,1,FALSE,1247.33,4.75310,0.18930,3.67070,NAN,NAN,10.70000
25090,0x000E,1,FALSE,1249.87,4.76242,0.18930,3.66970,NAN,NAN,10.90000
25140,0x000E,1,FALSE,1252.31,4.77137,0.18930,3.66880,NAN,NAN,11.00000
25190,0x000E,1,FALSE,1254.85,4.78069,0.18930,3.66770,NAN,NAN,10.50000
25240,0x000E,1,FALSE,1257.29,4.78964,0.18930,3.66650,NAN,NAN,10.00000
25290,0x000E,1,FALSE,1259.83,4.79895,0.18930,3.66520,NAN,NAN,10.30000
25340,0x000E,1,FALSE,1262.27,4.80789,0.18930,3.66400,NAN,NAN,10.40000
25390,0x000E,1,FALSE,1264.76,4.81701,0.18930,3.66280,NAN,NAN,10.50000
25440,0x000E,1,FALSE,1267.3,4.82631,0.18930,3.66160,NAN,NAN,10.40000
25490,0x000E,1,FALSE,1269.74,4.83525,0.18930,3.66030,NAN,NAN,10.30000
25540,0x000E,1,FALSE,1272.28,4.84454,0.18930,3.65900,NAN,NAN,10.50000
25590,0x000E,1,FALSE,1274.72,4.85347,0.18930,3.65780,NAN,NAN,10.70000
25640,0x000E,1,FALSE,1277.26,4.86276,0.18930,3.65670,NAN,NAN,10.90000
25690,0x000E,1,FALSE,1279.7,4.87168,0.18930,3.65560,NAN,NAN,11.00000
25740,0x000E,1,FALSE,1282.24,4.88097,0.18930,3.65450,NAN,NAN,10.80000
25790,0x000E,1,FALSE,1284.68,4.88988,0.18930,3.65310,NAN,NAN,10.30000
25840,0x000E,1,FALSE,1287.17,4.89898,0.18930,3.65150,NAN,NAN,10.10000
25890,0x000E,1,FALSE,1289.71,4.90825,0.18930,3.64990,NAN,NAN,10.30000
25940,0x000E,1,FALSE,1292.15,4.91716,0.18930,3.64840,NAN,NAN,10.50000
25990,0x000E,1,FALSE,1294.69,4.92642,0.18930,3.64690,NAN,NAN,10.50000
26040,0x000E,1,FALSE,1297.13,4.93532,0.18930,3.64520,NAN,NAN,10.30000
26090,0x000E,1,FALSE,1299.67,4.94457,0.18930,3.64350,NAN,NAN,10.30000
26140,0x000E,1,FALSE,1302.11,4.95346,0.18930,3.64200,NAN,NAN,10.60000
26190,0x000E,1,FALSE,1304.65,4.96270,0.18930,3.64050,NAN,NAN,10.80000
26240,0x000E,1,FALSE,1307.09,4.97158,0.18930,3.63920,NAN,NAN,10.90000
26290,0x000E,1,FALSE,1309.58,4.98064,0.18930,3.63800,NAN,NAN,10.90000
26340,0x000E,1,FALSE,1312.12,4.98988,0.18930,3.63660,NAN,NAN,10.40000
26390,0x000E,1,FALSE,1314.56,4.99875,0.18930,3.63510,NAN,NAN,10.10000
26440,0x000E,1,FALSE,1317.1,5.00798,0.18930,3.63380,NAN,NAN,10.40000
26490,0x000E,1,FALSE,1319.54,5.01684,0.18930,3.63260,NAN,NAN,10.50000
26540,0x000E,1,FALSE,1322.08,5.02607,0.18930,3.63160,NAN,NAN,10.50000
26590,0x000E,1,FALSE,1324.52,5.03493,0.18930,3.63060,NAN,NAN,10.30000
26640,0x000E,1,FALSE,1327.01,5.04397,0.18930,3.62960,NAN,NAN,10.30000
26690,0x000E,1,FALSE,1329.55,5.05320,0.18930,3.62870,NAN,NAN,10.50000
26740,0x000E,1,FALSE,1331.99,5.06205,0.18930,3.62810,NAN,NAN,10.80000
26790,0x000E,1,FALSE,1334.53,5.07127,0.18930,3.62760,NAN,NAN,10.90000
26840,0x000E,1,FALSE,1336.98,5.08012,0.18930,3.62710,NAN,NAN,11.00000
26890,0x000E,1,FALSE,1339.52,5.08934,0.18930,3.62660,NAN,NAN,10.70000
26940,0x000E,1,FALSE,1341.96,5.09818,0.18930,3.62590,NAN,NAN,10.20000
26990,0x000E,1,FALSE,1344.5,5.10739,0.18930,3.62500,NAN,NAN,10.20000
27040,0x000E,1,FALSE,1346.94,5.11624,0.18930,3.62420,NAN,NAN,10.40000
27090,0x000E,1,FALSE,1349.43,5.12526,0.18930,3.62350,NAN,NAN,10.50000
27140,0x000E,1,FALSE,1351.96,5.13446,0.18930,3.62280,NAN,NAN,10.50000
27190,0x000E,1,FALSE,1354.41,5.14329,0.18930,3.62200,NAN,NAN,10.30000
27240,0x000E,1,FALSE,1356.95,5.15249,0.18930,3.62120,NAN,NAN,10.40000
27290,0x000E,1,FALSE,1359.39,5.16133,0.18930,3.62060,NAN,NAN,10.70000
27340,0x000E,1,FALSE,1361.93,5.17053,0.18930,3.62010,NAN,NAN,10.80000
27390,0x000E,1,FALSE,1364.37,5.17936,0.18930,3.61970,NAN,NAN,11.00000
27440,0x000E,1,FALSE,1366.91,5.18855,0.18930,3.61920,NAN,NAN,10.80000
27490,0x000E,1,FALSE,1369.35,5.19739,0.18930,3.61850,NAN,NAN,10.30000
27540,0x000E,1,FALSE,1371.84,5.20640,0.18930,3.61760,NAN,NAN,10.20000
27590,0x000E,1,FALSE,1374.38,5.21558,0.18930,3.61670,NAN,NAN,10.40000
27640,0x000E,1,FALSE,1376.82,5.22441,0.18930,3.61590,NAN,NAN,10.50000
27690,0x000E,1,FALSE,1379.36,5.23359,0.18930,3.61520,NAN,NAN,10.60000
27740,0x000E,1,FALSE,1381.8,5.24241,0.18930,3.61430,NAN,NAN,10.30000
27790,0x000E,1,FALSE,1384.34,5.25159,0.18930,3.61330,NAN,NAN,10.40000
27840,0x000E,1,FALSE,1386.78,5.26041,0.18930,3.61260,NAN,NAN,10.60000
27890,0x000E,1,FALSE,1389.32,5.26958,0.18930,3.61180,NAN,NAN,10.80000
27940,0x000E,1,FALSE,1391.76,5.27840,0.18930,3.61120,NAN,NAN,10.90000
27990,0x000E,1,FALSE,1394.25,5.28739,0.18930,3.61070,NAN,NAN,11.00000
28040,0x000E,1,FALSE,1396.79,5.29656,0.18930,3.60990,NAN,NAN,10.50000
28090,0x000E,1,FALSE,1399.23,5.30537,0.18930,3.60880,NAN,NAN,10.00000
28140,0x000E,1,FALSE,1401.77,5.31454,0.18930,3.60760,NAN,NAN,10.30000
28190,0x000E,1,FALSE,1404.22,5.32334,0.18930,3.60650,NAN,NAN,10.40000
28240,0x000E,1,FALSE,1406.76,5.33251,0.18930,3.60540,NAN,NAN,10.50000
28290,0x000E,1,FALSE,1409.2,5.34131,0.18930,3.60430,NAN,NAN,10.30000
28340,0x000E,1,FALSE,1411.74,5.35047,0.18930,3.60290,NAN,NAN,10.30000
28390,0x000E,1,FALSE,1414.18,5.35926,0.18930,3.60170,NAN,NAN,10.50000
28440,0x000E,1,FALSE,1416.67,5.36823,0.18930,3.60060,NAN,NAN,10.70000
28490,0x000E,1,FALSE,1419.21,5.37737,0.18930,3.59970,NAN,NAN,10.90000
28540,0x000E,1,FALSE,1421.65,5.38616,0.18930,3.59880,NAN,NAN,11.00000
28590,0x000E,1,FALSE,1424.19,5.39530,0.18930,3.59770,NAN,NAN,10.80000
28640,0x000E,1,FALSE,1426.63,5.40408,0.18930,3.59630,NAN,NAN,10.30000
28690,0x000E,1,FALSE,1429.17,5.41321,0.18930,3.59460,NAN,NAN,10.20000
28740,0x000E,1,FALSE,1431.61,5.42197,0.18930,3.59300,NAN,NAN,10.40000
28790,0x000E,1,FALSE,1434.15,5.43110,0.18930,3.59130,NAN,NAN,10.50000
28840,0x000E,1,FALSE,1436.59,5.43986,0.18930,3.58970,NAN,NAN,10.60000
28890,0x000E,1,FALSE,1439.08,5.44879,0.18930,3.58790,NAN,NAN,10.30000
28940,0x000E,1,FALSE,1441.62,5.45790,0.18930,3.58580,NAN,NAN,10.40000
28990,0x000E,1,FALSE,1444.06,5.46665,0.18930,3.58400,NAN,NAN,10.60000
29040,0x000E,1,FALSE,1446.6,5.47574,0.18930,3.58220,NAN,NAN,10.80000
29090,0x000E,1,FALSE,1449.04,5.48448,0.18930,3.58040,NAN,NAN,10.90000
29140,0x000E,1,FALSE,1451.58,5.49357,0.18930,3.57870,NAN,NAN,11.00000
29190,0x000E,1,FALSE,1454.02,5.50230,0.18930,3.57650,NAN,NAN,10.60000
29240,0x000E,1,FALSE,1456.51,5.51120,0.18930,3.57390,NAN,NAN,10.10000
29290,0x000E,1,FALSE,1459.05,5.52027,0.18930,3.57090,NAN,NAN,10.40000
29340,0x000E,1,FALSE,1461.49,5.52898,0.18930,3.56810,NAN,NAN,10.50000
29390,0x000E,1,FALSE,1464.03,5.53804,0.18930,3.56500,NAN,NAN,10.60000
29440,0x000E,1,FALSE,1466.47,5.54673,0.18930,3.56190,NAN,NAN,10.40000
29490,0x000E,1,FALSE,1469.01,5.55578,0.18930,3.55810,NAN,NAN,10.30000
29540,0x000E,1,FALSE,1471.45,5.56446,0.18930,3.55430,NAN,NAN,10.50000
29590,0x000E,1,FALSE,1473.99,5.57348,0.18930,3.55050,NAN,NAN,10.70000
29640,0x000E,1,FALSE,1476.43,5.58214,0.18930,3.54670,NAN,NAN,10.90000
29690,0x000E,1,FALSE,1478.92,5.59097,0.18930,3.54270,NAN,NAN,11.00000
29740,0x000E,1,FALSE,1481.46,5.59996,0.18930,3.53830,NAN,NAN,10.90000
29790,0x000E,1,FALSE,1483.9,5.60859,0.18930,3.53310,NAN,NAN,10.40000
29840,0x000E,1,FALSE,1486.44,5.61755,0.18930,3.52690,NAN,NAN,10.20000
29890,0x000E,1,FALSE,1488.88,5.62615,0.18930,3.52060,NAN,NAN,10.50000
29940,0x000E,1,FALSE,1491.42,5.63509,0.18930,3.51370,NAN,NAN,10.60000
29990,0x000E,1,FALSE,1493.87,5.64365,0.18930,3.50650,NAN,NAN,10.70000
30040,0x000E,1,FALSE,1496.41,5.65255,0.18930,3.49840,NAN,NAN,10.40000
30090,0x000E,1,FALSE,1498.85,5.66108,0.18930,3.48980,NAN,NAN,10.50000
30140,0x000E,1,FALSE,1501.34,5.66976,0.18930,3.48080,NAN,NAN,10.70000
30190,0x000E,1,FALSE,1503.88,5.67859,0.18930,3.47140,NAN,NAN,10.90000
30240,0x000E,1,FALSE,1506.32,5.68705,0.18930,3.46180,NAN,NAN,11.10000
30290,0x000E,1,FALSE,1508.86,5.69583,0.18930,3.45160,NAN,NAN,11.20000
30340,0x000E,1,FALSE,1511.3,5.70423,0.18930,3.44060,NAN,NAN,10.80000
30390,0x000E,1,FALSE,1513.84,5.71296,0.18930,3.42810,NAN,NAN,10.30000
30440,0x000E,1,FALSE,1516.28,5.72131,0.18930,3.41500,NAN,NAN,10.50000
30490,0x000E,1,FALSE,1518.82,5.72996,0.18930,3.40120,NAN,NAN,10.60000
30540,0x000E,1,FALSE,1521.26,5.73824,0.18930,3.38710,NAN,NAN,10.70000
30590,0x000E,1,FALSE,1523.75,5.74666,0.18930,3.37210,NAN,NAN,10.70000
30640,0x000E,1,FALSE,1526.29,5.75520,0.18930,3.35560,NAN,NAN,10.50000
30690,0x000E,1,FALSE,1528.73,5.76337,0.18930,3.33870,NAN,NAN,10.70000
30740,0x000E,1,FALSE,1531.27,5.77183,0.18930,3.32090,NAN,NAN,10.90000
30790,0x000E,1,FALSE,1533.71,5.77991,0.18930,3.30290,NAN,NAN,11.10000
30840,0x000E,1,FALSE,1536.25,5.78828,0.18930,3.28350,NAN,NAN,11.20000
30890,0x000E,1,FALSE,1538.69,5.79627,0.18930,3.26300,NAN,NAN,10.90000
30940,0x000E,1,FALSE,1541.23,5.80452,0.18930,3.23950,NAN,NAN,10.50000
30990,0x000E,1,FALSE,1543.67,5.81240,0.18930,3.21390,NAN,NAN,10.50000
31040,0x000E,1,FALSE,1546.16,5.82037,0.18930,3.18640,NAN,NAN,10.70000
31090,0x000E,1,FALSE,1548.7,5.82842,0.18930,3.15580,NAN,NAN,10.90000
31140,0x000E,1,FALSE,1551.14,5.83608,0.18930,3.12270,NAN,NAN,10.90000
31190,0x000E,1,FALSE,1553.68,5.84397,0.18930,3.08320,NAN,NAN,10.70000
31240,0x000E,1,FALSE,1556.12,5.85144,0.18930,3.03780,NAN,NAN,10.80000
31290,0x000E,1,FALSE,1558.66,5.85908,0.18930,2.98030,NAN,NAN,11.00000
31340,0x000E,1,FALSE,1561.1,5.86627,0.18930,2.90670,NAN,NAN,11.20000
31390,0x000E,1,FALSE,1563.6,5.87340,0.18930,2.81620,NAN,NAN,11.40000
31422,0x000E,1,FALSE,1565.19,4.41573,0.18930,2.75000,NAN,NAN,11.40000

[DISCHARGE RESULT]
LoRange,FALSE
FinishedBy,1(Cut Voltage)
OpenVolt[V],4.05870
OpenCurr[A],0.00010
OpenTemp[°C],9.80000
StartVolt[V],4.05180
StartCurr[A],0.18900
StartTemp[°C],9.80000
CutoffVolt[V],2.75000
CutoffCurr[A],0.18930
CutoffTemp[°C],11.40000
TimeElapsed[s],31422
Power[Wh],4.41573
StartPulseA[V],NAN
CurrPulseA[V],NAN
StartPulseB[V],NAN
CurrPulseB[V],NAN
TempSet[°C],OFF
TempMon[°C],OFF
HumidSet[%],OFF
HumidMon[%],OFF

[LIFE]
CycleNo,2
Action,Discharge
Start,2021/03/01,20:01:11
End,2021/03/02,4:44:57
Capacity[mAh],1155.83

[IMPEDANCE],AfterCharge,AfterRest
Range,0,0
AutoRange,FALSE,FALSE
Resistance[ohm],NAN,NAN
Reactance[ohm],NAN,NAN