File: csvFiles/20210227/temp2.CSV
[TEST CONDITION]
CondName,バッテリ温度特性試験20210227
ModelID,21
Average,0
CheckDut,FALSE
AutoFine,FALSE
DateTime,2021/02/27,21:40:39
Operator,米山まうむ
Notes,運用に向けてバッテリの温度特性を測定する
運用時の消費電流を鑑み，0.1C放電で行う
なおこんなに運用直前にやることではないので，次期プロジェクトの人間はもっと早い段階で行うことをお勧めする
BatteryName,UF103450P
NominalCapacity[mAh],1800.0
NominalVoltage[V],3.70000
Volume[ml],0.10
Weight[g],38.30
SoftOvp[V],4.40000
SoftUvp[V],2.50000
SoftOah[%],110
SoftOtp[°C],60.00000
DeltaT[s],10.00000
DeltaV[V],0.10000
DeltaI[A],0.10000
ImpRange[ohm],0
Frequency[Hz],1000
AutoRange,FALSE
AfterCharge,FALSE
AfterChargeRest,FALSE
AfterDischarge,FALSE
AfterDischargeRest,FALSE
CapacityRate_C[%],OFF
CapacityRate_D[%],OFF
Impedance_C[ohm],OFF
Impedance_D[ohm],OFF
SeqInfoName,

[CHARGE SHEET]
SheetNo,2
Range,HIGH
Mode,CC-CV
ChargeTime[s],0
RestTime[s],0
Current[A],0.00000
CvVolt[V],0.00000
CvTime[s],0
ItCurrent[A],OFF
ItTime[s],OFF

[DISCHARGE SHEET]
SheetNo,2
Range,HIGH
Mode,CC
DischargeTime[s],43200
RestTime[s],0
Current[A],0.18800
CapacityVolt[V],3.70000
CutoffVolt[V],2.75000

[DISCHARGE MONITOR]
TimeElapsed[s],StdState,OpnState,LowRange,Capacity[mAh],Power[Wh],Curr[A],Volt[V],VoltHi[V],VoltLo[V],Temp[°C],TermState,CellVolt[V],CellVoltHi[V],CellVoltLo[V],CellTemp[°C],(continued)
0,0x000E,0,FALSE,0.00000,0.00000,0.00000,4.07300,NAN,NAN,2.40000
40,0x000E,1,FALSE,1.94267,0.00782,0.18930,4.02370,NAN,NAN,2.40000
90,0x000E,1,FALSE,4.49036,0.01807,0.18930,4.01730,NAN,NAN,2.40000
140,0x000E,1,FALSE,6.93778,0.02789,0.18930,4.01330,NAN,NAN,2.50000
190,0x000E,1,FALSE,9.48600,0.03811,0.18930,4.01030,NAN,NAN,2.60000
240,0x000E,1,FALSE,11.93361,0.04793,0.18930,4.00790,NAN,NAN,2.50000
290,0x000E,1,FALSE,14.48039,0.05813,0.18930,4.00560,NAN,NAN,2.20000
340,0x000E,1,FALSE,16.92747,0.06793,0.18930,4.00340,NAN,NAN,1.80000
390,0x000E,1,FALSE,19.42631,0.07793,0.18930,4.00120,NAN,NAN,1.90000
440,0x000E,1,FALSE,21.97458,0.08812,0.18930,3.99920,NAN,NAN,2.10000
490,0x000E,1,FALSE,24.42353,0.09791,0.18930,3.99750,NAN,NAN,2.20000
540,0x000E,1,FALSE,26.97228,0.10810,0.18930,3.99580,NAN,NAN,2.30000
590,0x000E,1,FALSE,29.42069,0.11788,0.18930,3.99420,NAN,NAN,2.30000
640,0x000E,1,FALSE,31.96939,0.12806,0.18930,3.99270,NAN,NAN,2.40000
690,0x000E,1,FALSE,34.41872,0.13783,0.18930,3.99130,NAN,NAN,2.40000
740,0x000E,1,FALSE,36.96708,0.14800,0.18930,3.98980,NAN,NAN,2.50000
790,0x000E,1,FALSE,39.41544,0.15777,0.18930,3.98850,NAN,NAN,2.60000
840,0x000E,1,FALSE,41.91397,0.16773,0.18930,3.98720,NAN,NAN,2.60000
890,0x000E,1,FALSE,44.46203,0.17789,0.18930,3.98580,NAN,NAN,2.70000
940,0x000E,1,FALSE,46.91047,0.18764,0.18930,3.98450,NAN,NAN,2.60000
990,0x000E,1,FALSE,49.45856,0.19780,0.18930,3.98310,NAN,NAN,2.30000
1040,0x000E,1,FALSE,51.90650,0.20754,0.18930,3.98150,NAN,NAN,2.00000
1090,0x000E,1,FALSE,54.45400,0.21768,0.18930,3.97970,NAN,NAN,1.90000
1140,0x000E,1,FALSE,56.90266,0.22743,0.18930,3.97810,NAN,NAN,2.10000
1190,0x000E,1,FALSE,59.45172,0.23756,0.18930,3.97660,NAN,NAN,2.30000
1240,0x000E,1,FALSE,61.90058,0.24730,0.18930,3.97520,NAN,NAN,2.40000
1290,0x000E,1,FALSE,64.39880,0.25723,0.18930,3.97380,NAN,NAN,2.30000
1340,0x000E,1,FALSE,66.94672,0.26735,0.18930,3.97240,NAN,NAN,2.50000
1390,0x000E,1,FALSE,69.39494,0.27707,0.18930,3.97120,NAN,NAN,2.50000
1440,0x000E,1,FALSE,71.94339,0.28719,0.18930,3.96990,NAN,NAN,2.50000
1490,0x000E,1,FALSE,74.39111,0.29691,0.18930,3.96870,NAN,NAN,2.60000
1540,0x000E,1,FALSE,76.93872,0.30701,0.18930,3.96750,NAN,NAN,2.60000
1590,0x000E,1,FALSE,79.38742,0.31673,0.18930,3.96640,NAN,NAN,2.70000
1640,0x000E,1,FALSE,81.93665,0.32684,0.18930,3.96520,NAN,NAN,2.60000
1690,0x000E,1,FALSE,84.43475,0.33674,0.18930,3.96390,NAN,NAN,2.40000
1740,0x000E,1,FALSE,86.88222,0.34644,0.18930,3.96240,NAN,NAN,2.00000
1790,0x000E,1,FALSE,89.43039,0.35653,0.18930,3.96070,NAN,NAN,1.80000
1840,0x000E,1,FALSE,91.87809,0.36622,0.18930,3.95920,NAN,NAN,2.10000
1890,0x000E,1,FALSE,94.42628,0.37631,0.18930,3.95780,NAN,NAN,2.30000
1940,0x000E,1,FALSE,96.87467,0.38600,0.18930,3.95650,NAN,NAN,2.40000
1990,0x000E,1,FALSE,99.42300,0.39608,0.18930,3.95520,NAN,NAN,2.30000
2040,0x000E,1,FALSE,101.871,0.40576,0.18930,3.95400,NAN,NAN,2.40000
2090,0x000E,1,FALSE,104.369,0.41563,0.18930,3.95280,NAN,NAN,2.40000
2140,0x000E,1,FALSE,106.917,0.42570,0.18930,3.95170,NAN,NAN,2.50000
2190,0x000E,1,FALSE,109.366,0.43538,0.18930,3.95060,NAN,NAN,2.50000
2240,0x000E,1,FALSE,111.913,0.44544,0.18930,3.94950,NAN,NAN,2.60000
2290,0x000E,1,FALSE,114.361,0.45511,0.18930,3.94850,NAN,NAN,2.60000
2340,0x000E,1,FALSE,116.909,0.46516,0.18930,3.94750,NAN,NAN,2.60000
2390,0x000E,1,FALSE,119.357,0.47483,0.18930,3.94640,NAN,NAN,2.40000
2440,0x000E,1,FALSE,121.905,0.48488,0.18930,3.94510,NAN,NAN,2.10000
2490,0x000E,1,FALSE,124.354,0.49454,0.18930,3.94360,NAN,NAN,1.80000
2540,0x000E,1,FALSE,126.853,0.50439,0.18930,3.94210,NAN,NAN,2.10000
2590,0x000E,1,FALSE,129.402,0.51444,0.18930,3.94080,NAN,NAN,2.20000
2640,0x000E,1,FALSE,131.851,0.52409,0.18930,3.93960,NAN,NAN,2.30000
2690,0x000E,1,FALSE,134.4,0.53412,0.18930,3.93840,NAN,NAN,2.30000
2740,0x000E,1,FALSE,136.849,0.54377,0.18930,3.93740,NAN,NAN,2.40000
2790,0x000E,1,FALSE,139.398,0.55380,0.18930,3.93630,NAN,NAN,2.40000
2840,0x000E,1,FALSE,141.846,0.56344,0.18930,3.93530,NAN,NAN,2.50000
2890,0x000E,1,FALSE,144.396,0.57347,0.18930,3.93430,NAN,NAN,2.50000
2940,0x000E,1,FALSE,146.845,0.58310,0.18930,3.93340,NAN,NAN,2.50000
2990,0x000E,1,FALSE,149.343,0.59293,0.18930,3.93250,NAN,NAN,2.60000
3040,0x000E,1,FALSE,151.89,0.60294,0.18930,3.93160,NAN,NAN,2.60000
3090,0x000E,1,FALSE,154.338,0.61256,0.18930,3.93060,NAN,NAN,2.50000
3140,0x000E,1,FALSE,156.886,0.62258,0.18930,3.92950,NAN,NAN,2.20000
3190,0x000E,1,FALSE,159.333,0.63219,0.18930,3.92820,NAN,NAN,1.90000
3240,0x000E,1,FALSE,161.88,0.64219,0.18930,3.92680,NAN,NAN,1.90000
3290,0x000E,1,FALSE,164.326,0.65180,0.18930,3.92550,NAN,NAN,2.10000
3340,0x000E,1,FALSE,166.873,0.66179,0.18930,3.92440,NAN,NAN,2.20000
3390,0x000E,1,FALSE,169.32,0.67139,0.18930,3.92330,NAN,NAN,2.30000
3440,0x000E,1,FALSE,171.817,0.68119,0.18930,3.92230,NAN,NAN,2.30000
3490,0x000E,1,FALSE,174.365,0.69118,0.18930,3.92130,NAN,NAN,2.40000
3540,0x000E,1,FALSE,176.812,0.70077,0.18930,3.92040,NAN,NAN,2.40000
3590,0x000E,1,FALSE,179.359,0.71075,0.18930,3.91950,NAN,NAN,2.50000
3640,0x000E,1,FALSE,181.806,0.72034,0.18930,3.91860,NAN,NAN,2.50000
3690,0x000E,1,FALSE,184.353,0.73033,0.18930,3.91780,NAN,NAN,2.50000
3740,0x000E,1,FALSE,186.801,0.73991,0.18930,3.91690,NAN,NAN,2.60000
3790,0x000E,1,FALSE,189.349,0.74989,0.18930,3.91610,NAN,NAN,2.60000
3840,0x000E,1,FALSE,191.796,0.75947,0.18930,3.91520,NAN,NAN,2.40000
3890,0x000E,1,FALSE,194.294,0.76925,0.18930,3.91410,NAN,NAN,2.10000
3940,0x000E,1,FALSE,196.841,0.77922,0.18930,3.91270,NAN,NAN,1.70000
3990,0x000E,1,FALSE,199.289,0.78879,0.18930,3.91140,NAN,NAN,2.00000
4040,0x000E,1,FALSE,201.836,0.79875,0.18930,3.91030,NAN,NAN,2.20000
4090,0x000E,1,FALSE,204.285,0.80833,0.18930,3.90920,NAN,NAN,2.30000
4140,0x000E,1,FALSE,206.834,0.81829,0.18930,3.90820,NAN,NAN,2.30000
4190,0x000E,1,FALSE,209.283,0.82786,0.18930,3.90730,NAN,NAN,2.40000
4240,0x000E,1,FALSE,211.782,0.83762,0.18930,3.90640,NAN,NAN,2.40000
4290,0x000E,1,FALSE,214.332,0.84758,0.18930,3.90550,NAN,NAN,2.40000
4340,0x000E,1,FALSE,216.781,0.85714,0.18930,3.90460,NAN,NAN,2.50000
4390,0x000E,1,FALSE,219.329,0.86709,0.18930,3.90380,NAN,NAN,2.50000
4440,0x000E,1,FALSE,221.777,0.87665,0.18930,3.90300,NAN,NAN,2.60000
4490,0x000E,1,FALSE,224.326,0.88659,0.18930,3.90230,NAN,NAN,2.70000
4540,0x000E,1,FALSE,226.775,0.89615,0.18930,3.90140,NAN,NAN,2.50000
4590,0x000E,1,FALSE,229.325,0.90609,0.18930,3.90040,NAN,NAN,2.20000
4640,0x000E,1,FALSE,231.774,0.91564,0.18930,3.89910,NAN,NAN,1.80000
4690,0x000E,1,FALSE,234.272,0.92538,0.18930,3.89770,NAN,NAN,1.90000
4740,0x000E,1,FALSE,236.822,0.93532,0.18930,3.89660,NAN,NAN,2.20000
4790,0x000E,1,FALSE,239.272,0.94486,0.18930,3.89550,NAN,NAN,2.30000
4840,0x000E,1,FALSE,241.821,0.95479,0.18930,3.89450,NAN,NAN,2.30000
4890,0x000E,1,FALSE,244.27,0.96433,0.18930,3.89350,NAN,NAN,2.30000
4940,0x000E,1,FALSE,246.821,0.97425,0.18930,3.89260,NAN,NAN,2.40000
4990,0x000E,1,FALSE,249.271,0.98379,0.18930,3.89180,NAN,NAN,2.50000
5040,0x000E,1,FALSE,251.821,0.99371,0.18930,3.89090,NAN,NAN,2.50000
5090,0x000E,1,FALSE,254.27,1.00324,0.18930,3.89010,NAN,NAN,2.50000
5140,0x000E,1,FALSE,256.769,1.01296,0.18930,3.88930,NAN,NAN,2.60000
5190,0x000E,1,FALSE,259.317,1.02287,0.18930,3.88850,NAN,NAN,2.70000
5240,0x000E,1,FALSE,261.767,1.03239,0.18930,3.88770,NAN,NAN,2.60000
5290,0x000E,1,FALSE,264.317,1.04230,0.18930,3.88670,NAN,NAN,2.40000
5340,0x000E,1,FALSE,266.765,1.05182,0.18930,3.88560,NAN,NAN,2.00000
5390,0x000E,1,FALSE,269.314,1.06172,0.18930,3.88410,NAN,NAN,1.90000
5440,0x000E,1,FALSE,271.762,1.07123,0.18930,3.88300,NAN,NAN,2.20000
5490,0x000E,1,FALSE,274.311,1.08112,0.18930,3.88180,NAN,NAN,2.30000
5540,0x000E,1,FALSE,276.759,1.09062,0.18930,3.88080,NAN,NAN,2.30000
5590,0x000E,1,FALSE,279.258,1.10032,0.18930,3.87980,NAN,NAN,2.30000
5640,0x000E,1,FALSE,281.806,1.11020,0.18930,3.87880,NAN,NAN,2.40000
5690,0x000E,1,FALSE,284.254,1.11970,0.18930,3.87790,NAN,NAN,2.50000
5740,0x000E,1,FALSE,286.804,1.12958,0.18930,3.87700,NAN,NAN,2.50000
5790,0x000E,1,FALSE,289.253,1.13908,0.18930,3.87620,NAN,NAN,2.60000
5840,0x000E,1,FALSE,291.8,1.14895,0.18930,3.87530,NAN,NAN,2.60000
5890,0x000E,1,FALSE,294.248,1.15843,0.18930,3.87450,NAN,NAN,2.70000
5940,0x000E,1,FALSE,296.796,1.16830,0.18930,3.87370,NAN,NAN,2.70000
5990,0x000E,1,FALSE,299.245,1.17779,0.18930,3.87280,NAN,NAN,2.50000
6040,0x000E,1,FALSE,301.743,1.18746,0.18930,3.87170,NAN,NAN,2.10000
6090,0x000E,1,FALSE,304.291,1.19732,0.18930,3.87020,NAN,NAN,1.80000
6140,0x000E,1,FALSE,306.739,1.20680,0.18930,3.86900,NAN,NAN,2.10000
6190,0x000E,1,FALSE,309.287,1.21665,0.18930,3.86780,NAN,NAN,2.20000
6240,0x000E,1,FALSE,311.735,1.22612,0.18930,3.86670,NAN,NAN,2.30000
6290,0x000E,1,FALSE,314.283,1.23597,0.18930,3.86560,NAN,NAN,2.40000
6340,0x000E,1,FALSE,316.732,1.24543,0.18930,3.86460,NAN,NAN,2.40000
6390,0x000E,1,FALSE,319.232,1.25509,0.18930,3.86370,NAN,NAN,2.50000
6440,0x000E,1,FALSE,321.781,1.26494,0.18930,3.86270,NAN,NAN,2.50000
6490,0x000E,1,FALSE,324.231,1.27440,0.18930,3.86180,NAN,NAN,2.50000
6540,0x000E,1,FALSE,326.781,1.28424,0.18930,3.86100,NAN,NAN,2.60000
6590,0x000E,1,FALSE,329.23,1.29370,0.18930,3.86010,NAN,NAN,2.70000
6640,0x000E,1,FALSE,331.78,1.30354,0.18930,3.85930,NAN,NAN,2.70000
6690,0x000E,1,FALSE,334.229,1.31299,0.18930,3.85840,NAN,NAN,2.60000
6740,0x000E,1,FALSE,336.778,1.32282,0.18930,3.85740,NAN,NAN,2.40000
6790,0x000E,1,FALSE,339.227,1.33227,0.18930,3.85610,NAN,NAN,2.00000
6840,0x000E,1,FALSE,341.725,1.34190,0.18930,3.85460,NAN,NAN,1.90000
6890,0x000E,1,FALSE,344.273,1.35172,0.18930,3.85330,NAN,NAN,2.20000
6940,0x000E,1,FALSE,346.722,1.36115,0.18930,3.85210,NAN,NAN,2.30000
6990,0x000E,1,FALSE,349.27,1.37097,0.18930,3.85110,NAN,NAN,2.40000
7040,0x000E,1,FALSE,351.719,1.38039,0.18930,3.84990,NAN,NAN,2.40000
7090,0x000E,1,FALSE,354.268,1.39020,0.18930,3.84890,NAN,NAN,2.40000
7140,0x000E,1,FALSE,356.717,1.39963,0.18930,3.84790,NAN,NAN,2.50000
7190,0x000E,1,FALSE,359.265,1.40943,0.18930,3.84700,NAN,NAN,2.50000
7240,0x000E,1,FALSE,361.715,1.41885,0.18930,3.84600,NAN,NAN,2.60000
7290,0x000E,1,FALSE,364.213,1.42846,0.18930,3.84510,NAN,NAN,2.70000
7340,0x000E,1,FALSE,366.761,1.43826,0.18930,3.84420,NAN,NAN,2.70000
7390,0x000E,1,FALSE,369.209,1.44767,0.18930,3.84330,NAN,NAN,2.70000
7440,0x000E,1,FALSE,371.757,1.45745,0.18930,3.84230,NAN,NAN,2.50000
7490,0x000E,1,FALSE,374.206,1.46686,0.18930,3.84110,NAN,NAN,2.20000
7540,0x000E,1,FALSE,376.755,1.47665,0.18930,3.83950,NAN,NAN,1.80000
7590,0x000E,1,FALSE,379.204,1.48605,0.18930,3.83820,NAN,NAN,2.10000
7640,0x000E,1,FALSE,381.752,1.49583,0.18930,3.83690,NAN,NAN,2.30000
7690,0x000E,1,FALSE,384.2,1.50522,0.18930,3.83570,NAN,NAN,2.40000
7740,0x000E,1,FALSE,386.698,1.51480,0.18930,3.83460,NAN,NAN,2.40000
7790,0x000E,1,FALSE,389.247,1.52457,0.18930,3.83340,NAN,NAN,2.40000
7840,0x000E,1,FALSE,391.696,1.53396,0.18930,3.83240,NAN,NAN,2.50000
7890,0x000E,1,FALSE,394.245,1.54372,0.18930,3.83140,NAN,NAN,2.50000
7940,0x000E,1,FALSE,396.692,1.55310,0.18930,3.83040,NAN,NAN,2.60000
7990,0x000E,1,FALSE,399.24,1.56286,0.18930,3.82940,NAN,NAN,2.60000
8040,0x000E,1,FALSE,401.688,1.57223,0.18930,3.82850,NAN,NAN,2.70000
8090,0x000E,1,FALSE,404.236,1.58198,0.18930,3.82750,NAN,NAN,2.70000
8140,0x000E,1,FALSE,406.684,1.59135,0.18930,3.82660,NAN,NAN,2.60000
8190,0x000E,1,FALSE,409.182,1.60091,0.18930,3.82540,NAN,NAN,2.40000
8240,0x000E,1,FALSE,411.731,1.61065,0.18930,3.82400,NAN,NAN,2.00000
8290,0x000E,1,FALSE,414.18,1.62002,0.18930,3.82250,NAN,NAN,1.90000
8340,0x000E,1,FALSE,416.729,1.62976,0.18930,3.82110,NAN,NAN,2.20000
8390,0x000E,1,FALSE,419.178,1.63911,0.18930,3.81990,NAN,NAN,2.30000
8440,0x000E,1,FALSE,421.728,1.64885,0.18930,3.81880,NAN,NAN,2.40000
8490,0x000E,1,FALSE,424.177,1.65820,0.18930,3.81760,NAN,NAN,2.40000
8540,0x000E,1,FALSE,426.678,1.66775,0.18930,3.81660,NAN,NAN,2.50000
8590,0x000E,1,FALSE,429.228,1.67748,0.18930,3.81550,NAN,NAN,2.50000
8640,0x000E,1,FALSE,431.678,1.68682,0.18930,3.81450,NAN,NAN,2.60000
8690,0x000E,1,FALSE,434.227,1.69655,0.18930,3.81360,NAN,NAN,2.60000
8740,0x000E,1,FALSE,436.677,1.70589,0.18930,3.81270,NAN,NAN,2.70000
8790,0x000E,1,FALSE,439.226,1.71560,0.18930,3.81170,NAN,NAN,2.70000
8840,0x000E,1,FALSE,441.674,1.72493,0.18930,3.81080,NAN,NAN,2.70000
8890,0x000E,1,FALSE,444.222,1.73464,0.18930,3.80980,NAN,NAN,2.50000
8940,0x000E,1,FALSE,446.671,1.74397,0.18930,3.80860,NAN,NAN,2.10000
8990,0x000E,1,FALSE,449.169,1.75348,0.18930,3.80710,NAN,NAN,1.80000
9040,0x000E,1,FALSE,451.718,1.76318,0.18930,3.80580,NAN,NAN,2.10000
9090,0x000E,1,FALSE,454.167,1.77250,0.18930,3.80470,NAN,NAN,2.30000
9140,0x000E,1,FALSE,456.716,1.78220,0.18930,3.80360,NAN,NAN,2.40000
9190,0x000E,1,FALSE,459.165,1.79151,0.18930,3.80250,NAN,NAN,2.40000
9240,0x000E,1,FALSE,461.712,1.80119,0.18930,3.80150,NAN,NAN,2.50000
9290,0x000E,1,FALSE,464.16,1.81050,0.18930,3.80060,NAN,NAN,2.50000
9340,0x000E,1,FALSE,466.708,1.82018,0.18930,3.79970,NAN,NAN,2.60000
9390,0x000E,1,FALSE,469.158,1.82949,0.18930,3.79890,NAN,NAN,2.60000
9440,0x000E,1,FALSE,471.657,1.83898,0.18930,3.79810,NAN,NAN,2.70000
9490,0x000E,1,FALSE,474.205,1.84866,0.18930,3.79730,NAN,NAN,2.70000
9540,0x000E,1,FALSE,476.655,1.85795,0.18930,3.79660,NAN,NAN,2.70000
9590,0x000E,1,FALSE,479.204,1.86763,0.18930,3.79570,NAN,NAN,2.60000
9640,0x000E,1,FALSE,481.654,1.87693,0.18930,3.79470,NAN,NAN,2.20000
9690,0x000E,1,FALSE,484.203,1.88660,0.18930,3.79340,NAN,NAN,1.80000
9740,0x000E,1,FALSE,486.652,1.89589,0.18930,3.79220,NAN,NAN,2.10000
9790,0x000E,1,FALSE,489.202,1.90556,0.18930,3.79120,NAN,NAN,2.30000
9840,0x000E,1,FALSE,491.651,1.91484,0.18930,3.79030,NAN,NAN,2.40000
9890,0x000E,1,FALSE,494.151,1.92431,0.18930,3.78940,NAN,NAN,2.40000
9940,0x000E,1,FALSE,496.7,1.93397,0.18930,3.78850,NAN,NAN,2.40000
9990,0x000E,1,FALSE,499.15,1.94325,0.18930,3.78780,NAN,NAN,2.50000
10040,0x000E,1,FALSE,501.7,1.95291,0.18930,3.78710,NAN,NAN,2.50000
10090,0x000E,1,FALSE,504.15,1.96218,0.18930,3.78640,NAN,NAN,2.60000
10140,0x000E,1,FALSE,506.7,1.97184,0.18930,3.78570,NAN,NAN,2.60000
10190,0x000E,1,FALSE,509.149,1.98111,0.18930,3.78510,NAN,NAN,2.70000
10240,0x000E,1,FALSE,511.699,1.99076,0.18930,3.78450,NAN,NAN,2.70000
10290,0x000E,1,FALSE,514.148,2.00003,0.18930,3.78390,NAN,NAN,2.60000
10340,0x000E,1,FALSE,516.648,2.00948,0.18930,3.78310,NAN,NAN,2.40000
10390,0x000E,1,FALSE,519.198,2.01913,0.18930,3.78210,NAN,NAN,2.00000
10440,0x000E,1,FALSE,521.647,2.02839,0.18930,3.78100,NAN,NAN,1.90000
10490,0x000E,1,FALSE,524.195,2.03802,0.18930,3.78000,NAN,NAN,2.20000
10540,0x000E,1,FALSE,526.644,2.04727,0.18930,3.77920,NAN,NAN,2.30000
10590,0x000E,1,FALSE,529.192,2.05690,0.18930,3.77850,NAN,NAN,2.40000
10640,0x000E,1,FALSE,531.641,2.06616,0.18930,3.77780,NAN,NAN,2.40000
10690,0x000E,1,FALSE,534.19,2.07578,0.18930,3.77710,NAN,NAN,2.50000
10740,0x000E,1,FALSE,536.639,2.08503,0.18930,3.77650,NAN,NAN,2.50000
10790,0x000E,1,FALSE,539.138,2.09447,0.18930,3.77600,NAN,NAN,2.50000
10840,0x000E,1,FALSE,541.688,2.10409,0.18930,3.77540,NAN,NAN,2.60000
10890,0x000E,1,FALSE,544.137,2.11334,0.18930,3.77490,NAN,NAN,2.60000
10940,0x000E,1,FALSE,546.685,2.12296,0.18930,3.77440,NAN,NAN,2.70000
10990,0x000E,1,FALSE,549.134,2.13220,0.18930,3.77390,NAN,NAN,2.70000
11040,0x000E,1,FALSE,551.683,2.14182,0.18930,3.77330,NAN,NAN,2.50000
11090,0x000E,1,FALSE,554.131,2.15105,0.18930,3.77260,NAN,NAN,2.10000
11140,0x000E,1,FALSE,556.63,2.16048,0.18930,3.77150,NAN,NAN,1.80000
11190,0x000E,1,FALSE,559.179,2.17009,0.18930,3.77060,NAN,NAN,2.10000
11240,0x000E,1,FALSE,561.627,2.17932,0.18930,3.76990,NAN,NAN,2.20000
11290,0x000E,1,FALSE,564.177,2.18893,0.18930,3.76920,NAN,NAN,2.30000
11340,0x000E,1,FALSE,566.626,2.19816,0.18930,3.76860,NAN,NAN,2.30000
11390,0x000E,1,FALSE,569.176,2.20777,0.18930,3.76800,NAN,NAN,2.40000
11440,0x000E,1,FALSE,571.625,2.21700,0.18930,3.76750,NAN,NAN,2.50000
11490,0x000E,1,FALSE,574.175,2.22660,0.18930,3.76700,NAN,NAN,2.50000
11540,0x000E,1,FALSE,576.624,2.23582,0.18930,3.76660,NAN,NAN,2.50000
11590,0x000E,1,FALSE,579.122,2.24523,0.18930,3.76610,NAN,NAN,2.60000
11640,0x000E,1,FALSE,581.672,2.25483,0.18930,3.76570,NAN,NAN,2.60000
11690,0x000E,1,FALSE,584.122,2.26406,0.18930,3.76530,NAN,NAN,2.70000
11740,0x000E,1,FALSE,586.671,2.27366,0.18930,3.76490,NAN,NAN,2.60000
11790,0x000E,1,FALSE,589.12,2.28287,0.18930,3.76430,NAN,NAN,2.30000
11840,0x000E,1,FALSE,591.668,2.29247,0.18930,3.76350,NAN,NAN,2.00000
11890,0x000E,1,FALSE,594.117,2.30168,0.18930,3.76250,NAN,NAN,1.90000
11940,0x000E,1,FALSE,596.667,2.31127,0.18930,3.76180,NAN,NAN,2.20000
11990,0x000E,1,FALSE,599.116,2.32048,0.18930,3.76120,NAN,NAN,2.30000
12040,0x000E,1,FALSE,601.615,2.32988,0.18930,3.76060,NAN,NAN,2.40000
12090,0x000E,1,FALSE,604.164,2.33947,0.18930,3.76010,NAN,NAN,2.30000
12140,0x000E,1,FALSE,606.614,2.34868,0.18930,3.75960,NAN,NAN,2.40000
12190,0x000E,1,FALSE,609.164,2.35826,0.18930,3.75910,NAN,NAN,2.50000
12240,0x000E,1,FALSE,611.614,2.36747,0.18930,3.75870,NAN,NAN,2.50000
12290,0x000E,1,FALSE,614.163,2.37705,0.18930,3.75830,NAN,NAN,2.60000
12340,0x000E,1,FALSE,616.612,2.38626,0.18930,3.75800,NAN,NAN,2.60000
12390,0x000E,1,FALSE,619.162,2.39583,0.18930,3.75760,NAN,NAN,2.70000
12440,0x000E,1,FALSE,621.611,2.40504,0.18930,3.75730,NAN,NAN,2.70000
12490,0x000E,1,FALSE,624.109,2.41442,0.18930,3.75680,NAN,NAN,2.50000
12540,0x000E,1,FALSE,626.658,2.42400,0.18930,3.75610,NAN,NAN,2.10000
12590,0x000E,1,FALSE,629.108,2.43320,0.18930,3.75530,NAN,NAN,1.80000
12640,0x000E,1,FALSE,631.657,2.44277,0.18930,3.75450,NAN,NAN,2.10000
12690,0x000E,1,FALSE,634.106,2.45196,0.18930,3.75390,NAN,NAN,2.20000
12740,0x000E,1,FALSE,636.655,2.46153,0.18930,3.75340,NAN,NAN,2.30000
12790,0x000E,1,FALSE,639.104,2.47072,0.18930,3.75290,NAN,NAN,2.30000
12840,0x000E,1,FALSE,641.653,2.48028,0.18930,3.75240,NAN,NAN,2.40000
12890,0x000E,1,FALSE,644.102,2.48947,0.18930,3.75200,NAN,NAN,2.50000
12940,0x000E,1,FALSE,646.6,2.49884,0.18930,3.75160,NAN,NAN,2.50000
12990,0x000E,1,FALSE,649.148,2.50840,0.18930,3.75130,NAN,NAN,2.50000
13040,0x000E,1,FALSE,651.595,2.51758,0.18930,3.75090,NAN,NAN,2.60000
13090,0x000E,1,FALSE,654.143,2.52713,0.18930,3.75060,NAN,NAN,2.70000
13140,0x000E,1,FALSE,656.59,2.53631,0.18930,3.75030,NAN,NAN,2.70000
13190,0x000E,1,FALSE,659.138,2.54587,0.18930,3.75000,NAN,NAN,2.60000
13240,0x000E,1,FALSE,661.587,2.55505,0.18930,3.74940,NAN,NAN,2.20000
13290,0x000E,1,FALSE,664.086,2.56442,0.18930,3.74870,NAN,NAN,1.90000
13340,0x000E,1,FALSE,666.635,2.57397,0.18930,3.74780,NAN,NAN,2.00000
13390,0x000E,1,FALSE,669.084,2.58315,0.18930,3.74730,NAN,NAN,2.20000
13440,0x000E,1,FALSE,671.633,2.59270,0.18930,3.74670,NAN,NAN,2.30000
13490,0x000E,1,FALSE,674.082,2.60188,0.18930,3.74630,NAN,NAN,2.30000
13540,0x000E,1,FALSE,676.632,2.61143,0.18930,3.74580,NAN,NAN,2.40000
13590,0x000E,1,FALSE,679.082,2.62060,0.18930,3.74540,NAN,NAN,2.40000
13640,0x000E,1,FALSE,681.632,2.63015,0.18930,3.74510,NAN,NAN,2.50000
13690,0x000E,1,FALSE,684.081,2.63932,0.18930,3.74470,NAN,NAN,2.50000
13740,0x000E,1,FALSE,686.581,2.64868,0.18930,3.74440,NAN,NAN,2.60000
13790,0x000E,1,FALSE,689.13,2.65823,0.18930,3.74420,NAN,NAN,2.60000
13840,0x000E,1,FALSE,691.579,2.66740,0.18930,3.74390,NAN,NAN,2.70000
13890,0x000E,1,FALSE,694.128,2.67694,0.18930,3.74370,NAN,NAN,2.60000
13940,0x000E,1,FALSE,696.577,2.68610,0.18930,3.74320,NAN,NAN,2.40000
13990,0x000E,1,FALSE,699.126,2.69564,0.18930,3.74260,NAN,NAN,2.00000
14040,0x000E,1,FALSE,701.575,2.70481,0.18930,3.74170,NAN,NAN,1.90000
14090,0x000E,1,FALSE,704.124,2.71434,0.18930,3.74120,NAN,NAN,2.20000
14140,0x000E,1,FALSE,706.572,2.72350,0.18930,3.74060,NAN,NAN,2.30000
14190,0x000E,1,FALSE,709.071,2.73285,0.18930,3.74020,NAN,NAN,2.40000
14240,0x000E,1,FALSE,711.618,2.74237,0.18930,3.73980,NAN,NAN,2.40000
14290,0x000E,1,FALSE,714.067,2.75153,0.18930,3.73940,NAN,NAN,2.40000
14340,0x000E,1,FALSE,716.617,2.76106,0.18930,3.73910,NAN,NAN,2.50000
14390,0x000E,1,FALSE,719.066,2.77022,0.18930,3.73880,NAN,NAN,2.50000
14440,0x000E,1,FALSE,721.615,2.77975,0.18930,3.73850,NAN,NAN,2.60000
14490,0x000E,1,FALSE,724.064,2.78890,0.18930,3.73820,NAN,NAN,2.60000
14540,0x000E,1,FALSE,726.613,2.79843,0.18930,3.73800,NAN,NAN,2.70000
14590,0x000E,1,FALSE,729.061,2.80758,0.18930,3.73780,NAN,NAN,2.70000
14640,0x000E,1,FALSE,731.56,2.81692,0.18930,3.73740,NAN,NAN,2.50000
14690,0x000E,1,FALSE,734.109,2.82645,0.18930,3.73690,NAN,NAN,2.10000
14740,0x000E,1,FALSE,736.558,2.83560,0.18930,3.73620,NAN,NAN,1.80000
14790,0x000E,1,FALSE,739.108,2.84512,0.18930,3.73550,NAN,NAN,2.10000
14840,0x000E,1,FALSE,741.557,2.85427,0.18930,3.73500,NAN,NAN,2.30000
14890,0x000E,1,FALSE,744.105,2.86378,0.18930,3.73450,NAN,NAN,2.40000
14940,0x000E,1,FALSE,746.554,2.87293,0.18930,3.73410,NAN,NAN,2.30000
14990,0x000E,1,FALSE,749.103,2.88245,0.18930,3.73380,NAN,NAN,2.40000
15040,0x000E,1,FALSE,751.553,2.89159,0.18930,3.73350,NAN,NAN,2.50000
15090,0x000E,1,FALSE,754.052,2.90092,0.18930,3.73320,NAN,NAN,2.50000
15140,0x000E,1,FALSE,756.601,2.91044,0.18930,3.73300,NAN,NAN,2.60000
15190,0x000E,1,FALSE,759.049,2.91957,0.18930,3.73280,NAN,NAN,2.60000
15240,0x000E,1,FALSE,761.598,2.92909,0.18930,3.73260,NAN,NAN,2.70000
15290,0x000E,1,FALSE,764.047,2.93823,0.18930,3.73240,NAN,NAN,2.70000
15340,0x000E,1,FALSE,766.596,2.94774,0.18930,3.73220,NAN,NAN,2.60000
15390,0x000E,1,FALSE,769.046,2.95688,0.18930,3.73170,NAN,NAN,2.30000
15440,0x000E,1,FALSE,771.546,2.96621,0.18930,3.73110,NAN,NAN,1.90000
15490,0x000E,1,FALSE,774.095,2.97572,0.18930,3.73040,NAN,NAN,2.00000
15540,0x000E,1,FALSE,776.545,2.98486,0.18930,3.72990,NAN,NAN,2.20000
15590,0x000E,1,FALSE,779.095,2.99437,0.18930,3.72950,NAN,NAN,2.30000
15640,0x000E,1,FALSE,781.544,3.00350,0.18930,3.72910,NAN,NAN,2.40000
15690,0x000E,1,FALSE,784.093,3.01301,0.18930,3.72870,NAN,NAN,2.40000
15740,0x000E,1,FALSE,786.542,3.02214,0.18930,3.72840,NAN,NAN,2.50000
15790,0x000E,1,FALSE,789.092,3.03164,0.18930,3.72820,NAN,NAN,2.50000
15840,0x000E,1,FALSE,791.541,3.04077,0.18930,3.72800,NAN,NAN,2.50000
15890,0x000E,1,FALSE,794.04,3.05009,0.18930,3.72780,NAN,NAN,2.60000
15940,0x000E,1,FALSE,796.589,3.05959,0.18930,3.72760,NAN,NAN,2.60000
15990,0x000E,1,FALSE,799.039,3.06872,0.18930,3.72750,NAN,NAN,2.80000
16040,0x000E,1,FALSE,801.588,3.07822,0.18930,3.72740,NAN,NAN,2.90000
16090,0x000E,1,FALSE,804.037,3.08734,0.18930,3.72740,NAN,NAN,3.10000
16140,0x000E,1,FALSE,806.585,3.09684,0.18930,3.72740,NAN,NAN,3.40000
16190,0x000E,1,FALSE,809.035,3.10597,0.18930,3.72760,NAN,NAN,3.70000
16240,0x000E,1,FALSE,811.585,3.11548,0.18930,3.72800,NAN,NAN,4.20000
16290,0x000E,1,FALSE,814.033,3.12461,0.18930,3.72860,NAN,NAN,4.80000
16340,0x000E,1,FALSE,816.532,3.13393,0.18930,3.72930,NAN,NAN,5.40000
16390,0x000E,1,FALSE,819.082,3.14343,0.18930,3.73020,NAN,NAN,5.90000
16440,0x000E,1,FALSE,821.532,3.15257,0.18930,3.73120,NAN,NAN,6.40000
16490,0x000E,1,FALSE,824.082,3.16209,0.18930,3.73220,NAN,NAN,6.90000
16540,0x000E,1,FALSE,826.532,3.17123,0.18930,3.73320,NAN,NAN,7.30000
16590,0x000E,1,FALSE,829.082,3.18075,0.18930,3.73410,NAN,NAN,7.70000
16640,0x000E,1,FALSE,831.53,3.18990,0.18930,3.73490,NAN,NAN,8.00000
16690,0x000E,1,FALSE,834.08,3.19942,0.18930,3.73570,NAN,NAN,8.40000
16740,0x000E,1,FALSE,836.53,3.20857,0.18930,3.73650,NAN,NAN,8.70000
16790,0x000E,1,FALSE,839.03,3.21791,0.18930,3.73710,NAN,NAN,9.00000
16840,0x000E,1,FALSE,841.58,3.22744,0.18930,3.73770,NAN,NAN,9.30000
16890,0x000E,1,FALSE,844.03,3.23660,0.18930,3.73830,NAN,NAN,9.60000
16940,0x000E,1,FALSE,846.58,3.24613,0.18930,3.73880,NAN,NAN,9.70000
16990,0x000E,1,FALSE,849.03,3.25529,0.18930,3.73910,NAN,NAN,9.70000
17040,0x000E,1,FALSE,851.579,3.26482,0.18930,3.73940,NAN,NAN,9.80000
17090,0x000E,1,FALSE,854.029,3.27399,0.18930,3.73950,NAN,NAN,9.40000
17140,0x000E,1,FALSE,856.58,3.28352,0.18930,3.73920,NAN,NAN,8.80000
17190,0x000E,1,FALSE,859.03,3.29268,0.18930,3.73860,NAN,NAN,8.20000
17240,0x000E,1,FALSE,861.529,3.30202,0.18930,3.73780,NAN,NAN,7.50000
17290,0x000E,1,FALSE,864.078,3.31155,0.18930,3.73670,NAN,NAN,6.80000
17340,0x000E,1,FALSE,866.528,3.32070,0.18930,3.73550,NAN,NAN,6.10000
17390,0x000E,1,FALSE,869.078,3.33022,0.18930,3.73430,NAN,NAN,5.50000
17440,0x000E,1,FALSE,871.527,3.33937,0.18930,3.73300,NAN,NAN,5.10000
17490,0x000E,1,FALSE,874.076,3.34888,0.18930,3.73160,NAN,NAN,4.50000
17540,0x000E,1,FALSE,876.526,3.35802,0.18930,3.73010,NAN,NAN,3.90000
17590,0x000E,1,FALSE,879.027,3.36735,0.18930,3.72880,NAN,NAN,4.30000
17640,0x000E,1,FALSE,881.576,3.37685,0.18930,3.72770,NAN,NAN,4.50000
17690,0x000E,1,FALSE,884.027,3.38598,0.18930,3.72690,NAN,NAN,4.50000
17740,0x000E,1,FALSE,886.577,3.39549,0.18930,3.72610,NAN,NAN,4.30000
17790,0x000E,1,FALSE,889.028,3.40462,0.18930,3.72520,NAN,NAN,4.00000
17840,0x000E,1,FALSE,891.578,3.41411,0.18930,3.72430,NAN,NAN,3.90000
17890,0x000E,1,FALSE,894.028,3.42324,0.18930,3.72360,NAN,NAN,3.90000
17940,0x000E,1,FALSE,896.578,3.43273,0.18930,3.72290,NAN,NAN,3.80000
17990,0x000E,1,FALSE,899.028,3.44185,0.18930,3.72220,NAN,NAN,3.70000
18040,0x000E,1,FALSE,901.527,3.45115,0.18930,3.72150,NAN,NAN,3.30000
18090,0x000E,1,FALSE,904.077,3.46064,0.18930,3.72060,NAN,NAN,2.80000
18140,0x000E,1,FALSE,906.526,3.46975,0.18930,3.71960,NAN,NAN,2.80000
18190,0x000E,1,FALSE,909.076,3.47923,0.18930,3.71890,NAN,NAN,3.00000
18240,0x000E,1,FALSE,911.525,3.48834,0.18930,3.71830,NAN,NAN,3.10000
18290,0x000E,1,FALSE,914.075,3.49782,0.18930,3.71780,NAN,NAN,3.20000
18340,0x000E,1,FALSE,916.524,3.50692,0.18930,3.71730,NAN,NAN,3.00000
18390,0x000E,1,FALSE,919.074,3.51640,0.18930,3.71680,NAN,NAN,3.10000
18440,0x000E,1,FALSE,921.523,3.52550,0.18930,3.71640,NAN,NAN,3.10000
18490,0x000E,1,FALSE,924.023,3.53479,0.18930,3.71600,NAN,NAN,3.10000
18540,0x000E,1,FALSE,926.572,3.54426,0.18930,3.71560,NAN,NAN,3.10000
18590,0x000E,1,FALSE,929.022,3.55336,0.18930,3.71530,NAN,NAN,3.10000
18640,0x000E,1,FALSE,931.571,3.56284,0.18930,3.71500,NAN,NAN,3.10000
18690,0x000E,1,FALSE,934.021,3.57193,0.18930,3.71470,NAN,NAN,2.90000
18740,0x000E,1,FALSE,936.571,3.58140,0.18930,3.71410,NAN,NAN,2.50000
18790,0x000E,1,FALSE,939.021,3.59050,0.18930,3.71340,NAN,NAN,2.10000
18840,0x000E,1,FALSE,941.571,3.59997,0.18930,3.71260,NAN,NAN,2.40000
18890,0x000E,1,FALSE,944.02,3.60906,0.18930,3.71210,NAN,NAN,2.60000
18940,0x000E,1,FALSE,946.519,3.61834,0.18930,3.71170,NAN,NAN,2.70000
18990,0x000E,1,FALSE,949.069,3.62780,0.18930,3.71140,NAN,NAN,2.70000
19040,0x000E,1,FALSE,951.519,3.63689,0.18930,3.71100,NAN,NAN,2.70000
19090,0x000E,1,FALSE,954.069,3.64636,0.18930,3.71070,NAN,NAN,2.70000
19140,0x000E,1,FALSE,956.52,3.65545,0.18930,3.71040,NAN,NAN,2.70000
19190,0x000E,1,FALSE,959.07,3.66491,0.18930,3.71010,NAN,NAN,2.80000
19240,0x000E,1,FALSE,961.521,3.67400,0.18930,3.70990,NAN,NAN,2.80000
19290,0x000E,1,FALSE,964.07,3.68346,0.18930,3.70970,NAN,NAN,2.90000
19340,0x000E,1,FALSE,966.519,3.69254,0.18930,3.70950,NAN,NAN,2.90000
19390,0x000E,1,FALSE,969.019,3.70181,0.18930,3.70930,NAN,NAN,2.80000
19440,0x000E,1,FALSE,971.569,3.71127,0.18930,3.70880,NAN,NAN,2.40000
19490,0x000E,1,FALSE,974.019,3.72036,0.18930,3.70810,NAN,NAN,2.00000
19540,0x000E,1,FALSE,976.569,3.72981,0.18930,3.70740,NAN,NAN,2.20000
19590,0x000E,1,FALSE,979.019,3.73889,0.18930,3.70690,NAN,NAN,2.40000
19640,0x000E,1,FALSE,981.569,3.74834,0.18930,3.70650,NAN,NAN,2.50000
19690,0x000E,1,FALSE,984.018,3.75742,0.18930,3.70620,NAN,NAN,2.60000
19740,0x000E,1,FALSE,986.568,3.76687,0.18930,3.70580,NAN,NAN,2.60000
19790,0x000E,1,FALSE,989.018,3.77595,0.18930,3.70550,NAN,NAN,2.60000
19840,0x000E,1,FALSE,991.519,3.78521,0.18930,3.70520,NAN,NAN,2.70000
19890,0x000E,1,FALSE,994.069,3.79466,0.18930,3.70500,NAN,NAN,2.70000
19940,0x000E,1,FALSE,996.519,3.80374,0.18930,3.70480,NAN,NAN,2.80000
19990,0x000E,1,FALSE,999.069,3.81318,0.18930,3.70460,NAN,NAN,2.80000
20040,0x000E,1,FALSE,1001.52,3.82226,0.18930,3.70440,NAN,NAN,2.90000
20090,0x000E,1,FALSE,1004.07,3.83171,0.18930,3.70420,NAN,NAN,2.70000
20140,0x000E,1,FALSE,1006.52,3.84078,0.18930,3.70380,NAN,NAN,2.40000
20190,0x000E,1,FALSE,1009.02,3.85004,0.18930,3.70310,NAN,NAN,2.00000
20240,0x000E,1,FALSE,1011.57,3.85948,0.18930,3.70230,NAN,NAN,2.10000
20290,0x000E,1,FALSE,1014.02,3.86854,0.18930,3.70180,NAN,NAN,2.40000
20340,0x000E,1,FALSE,1016.57,3.87798,0.18930,3.70130,NAN,NAN,2.50000
20390,0x000E,1,FALSE,1019.02,3.88705,0.18930,3.70100,NAN,NAN,2.60000
20440,0x000E,1,FALSE,1021.57,3.89649,0.18930,3.70050,NAN,NAN,2.50000
20490,0x000E,1,FALSE,1024.02,3.90555,0.18930,3.70020,NAN,NAN,2.60000
20540,0x000E,1,FALSE,1026.57,3.91499,0.18930,3.69990,NAN,NAN,2.70000
20590,0x000E,1,FALSE,1029.02,3.92405,0.18930,3.69960,NAN,NAN,2.70000
20640,0x000E,1,FALSE,1031.52,3.93330,0.18930,3.69940,NAN,NAN,2.70000
20690,0x000E,1,FALSE,1034.07,3.94273,0.18930,3.69910,NAN,NAN,2.80000
20740,0x000E,1,FALSE,1036.52,3.95179,0.18930,3.69890,NAN,NAN,2.90000
20790,0x000E,1,FALSE,1039.07,3.96122,0.18930,3.69860,NAN,NAN,2.80000
20840,0x000E,1,FALSE,1041.52,3.97027,0.18930,3.69820,NAN,NAN,2.50000
20890,0x000E,1,FALSE,1044.06,3.97970,0.18930,3.69760,NAN,NAN,2.20000
20940,0x000E,1,FALSE,1046.52,3.98876,0.18930,3.69670,NAN,NAN,2.00000
20990,0x000E,1,FALSE,1049.07,3.99818,0.18930,3.69600,NAN,NAN,2.30000
21040,0x000E,1,FALSE,1051.52,4.00724,0.18930,3.69550,NAN,NAN,2.50000
21090,0x000E,1,FALSE,1054.02,4.01648,0.18930,3.69510,NAN,NAN,2.60000
21140,0x000E,1,FALSE,1056.57,4.02590,0.18930,3.69460,NAN,NAN,2.50000
21190,0x000E,1,FALSE,1059.02,4.03495,0.18930,3.69410,NAN,NAN,2.60000
21240,0x000E,1,FALSE,1061.57,4.04437,0.18930,3.69380,NAN,NAN,2.60000
21290,0x000E,1,FALSE,1064.02,4.05342,0.18930,3.69340,NAN,NAN,2.70000
21340,0x000E,1,FALSE,1066.57,4.06284,0.18930,3.69310,NAN,NAN,2.70000
21390,0x000E,1,FALSE,1069.02,4.07188,0.18930,3.69280,NAN,NAN,2.80000
21440,0x000E,1,FALSE,1071.57,4.08130,0.18930,3.69250,NAN,NAN,2.80000
21490,0x000E,1,FALSE,1074.02,4.09034,0.18930,3.69220,NAN,NAN,2.90000
21540,0x000E,1,FALSE,1076.52,4.09957,0.18930,3.69180,NAN,NAN,2.70000
21590,0x000E,1,FALSE,1079.07,4.10898,0.18930,3.69110,NAN,NAN,2.30000
21640,0x000E,1,FALSE,1081.52,4.11802,0.18930,3.69020,NAN,NAN,2.00000
21690,0x000E,1,FALSE,1084.06,4.12743,0.18930,3.68940,NAN,NAN,2.30000
21740,0x000E,1,FALSE,1086.51,4.13646,0.18930,3.68880,NAN,NAN,2.50000
21790,0x000E,1,FALSE,1089.06,4.14586,0.18930,3.68820,NAN,NAN,2.60000
21840,0x000E,1,FALSE,1091.51,4.15490,0.18930,3.68770,NAN,NAN,2.60000
21890,0x000E,1,FALSE,1094.06,4.16429,0.18930,3.68710,NAN,NAN,2.60000
21940,0x000E,1,FALSE,1096.51,4.17333,0.18930,3.68660,NAN,NAN,2.70000
21990,0x000E,1,FALSE,1099.01,4.18254,0.18930,3.68620,NAN,NAN,2.70000
22040,0x000E,1,FALSE,1101.56,4.19194,0.18930,3.68580,NAN,NAN,2.80000
22090,0x000E,1,FALSE,1104.01,4.20096,0.18930,3.68540,NAN,NAN,2.80000
22140,0x000E,1,FALSE,1106.56,4.21036,0.18930,3.68500,NAN,NAN,2.90000
22190,0x000E,1,FALSE,1109.01,4.21938,0.18930,3.68460,NAN,NAN,2.90000
22240,0x000E,1,FALSE,1111.56,4.22878,0.18930,3.68410,NAN,NAN,2.70000
22290,0x000E,1,FALSE,1114.01,4.23780,0.18930,3.68340,NAN,NAN,2.40000
22340,0x000E,1,FALSE,1116.51,4.24700,0.18930,3.68230,NAN,NAN,2.00000
22390,0x000E,1,FALSE,1119.06,4.25639,0.18930,3.68140,NAN,NAN,2.30000
22440,0x000E,1,FALSE,1121.51,4.26540,0.18930,3.68060,NAN,NAN,2.50000
22490,0x000E,1,FALSE,1124.05,4.27478,0.18930,3.67990,NAN,NAN,2.60000
22540,0x000E,1,FALSE,1126.5,4.28380,0.18930,3.67930,NAN,NAN,2.60000
22590,0x000E,1,FALSE,1129.05,4.29318,0.18930,3.67860,NAN,NAN,2.60000
22640,0x000E,1,FALSE,1131.5,4.30219,0.18930,3.67800,NAN,NAN,2.70000
22690,0x000E,1,FALSE,1134.06,4.31157,0.18930,3.67740,NAN,NAN,2.70000
22740,0x000E,1,FALSE,1136.51,4.32058,0.18930,3.67680,NAN,NAN,2.80000
22790,0x000E,1,FALSE,1139.01,4.32977,0.18930,3.67630,NAN,NAN,2.80000
22840,0x000E,1,FALSE,1141.56,4.33915,0.18930,3.67580,NAN,NAN,2.90000
22890,0x000E,1,FALSE,1144.01,4.34815,0.18930,3.67520,NAN,NAN,2.90000
22940,0x000E,1,FALSE,1146.56,4.35753,0.18930,3.67460,NAN,NAN,2.80000
22990,0x000E,1,FALSE,1149.01,4.36653,0.18930,3.67390,NAN,NAN,2.50000
23040,0x000E,1,FALSE,1151.56,4.37590,0.18930,3.67280,NAN,NAN,2.20000
23090,0x000E,1,FALSE,1154.01,4.38489,0.18930,3.67160,NAN,NAN,2.10000
23140,0x000E,1,FALSE,1156.56,4.39426,0.18930,3.67060,NAN,NAN,2.40000
23190,0x000E,1,FALSE,1159.01,4.40325,0.18930,3.66970,NAN,NAN,2.60000
23240,0x000E,1,FALSE,1161.51,4.41242,0.18930,3.66890,NAN,NAN,2.70000
23290,0x000E,1,FALSE,1164.06,4.42177,0.18930,3.66810,NAN,NAN,2.60000
23340,0x000E,1,FALSE,1166.51,4.43076,0.18930,3.66720,NAN,NAN,2.70000
23390,0x000E,1,FALSE,1169.06,4.44011,0.18930,3.66650,NAN,NAN,2.70000
23440,0x000E,1,FALSE,1171.51,4.44909,0.18930,3.66570,NAN,NAN,2.80000
23490,0x000E,1,FALSE,1174.06,4.45843,0.18930,3.66500,NAN,NAN,2.80000
23540,0x000E,1,FALSE,1176.51,4.46741,0.18930,3.66430,NAN,NAN,2.90000
23590,0x000E,1,FALSE,1179.06,4.47675,0.18930,3.66360,NAN,NAN,2.90000
23640,0x000E,1,FALSE,1181.51,4.48573,0.18930,3.66290,NAN,NAN,3.00000
23690,0x000E,1,FALSE,1184.01,4.49488,0.18930,3.66210,NAN,NAN,2.80000
23740,0x000E,1,FALSE,1186.56,4.50422,0.18930,3.66100,NAN,NAN,2.40000
23790,0x000E,1,FALSE,1189.01,4.51319,0.18930,3.65970,NAN,NAN,2.10000
23840,0x000E,1,FALSE,1191.56,4.52251,0.18930,3.65830,NAN,NAN,2.40000
23890,0x000E,1,FALSE,1194.01,4.53148,0.18930,3.65720,NAN,NAN,2.50000
23940,0x000E,1,FALSE,1196.56,4.54080,0.18930,3.65620,NAN,NAN,2.60000
23990,0x000E,1,FALSE,1199.01,4.54975,0.18930,3.65530,NAN,NAN,2.60000
24040,0x000E,1,FALSE,1201.55,4.55906,0.18930,3.65420,NAN,NAN,2.70000
24090,0x000E,1,FALSE,1204,4.56801,0.18930,3.65330,NAN,NAN,2.70000
24140,0x000E,1,FALSE,1206.5,4.57713,0.18930,3.65240,NAN,NAN,2.80000
24190,0x000E,1,FALSE,1209.05,4.58644,0.18930,3.65150,NAN,NAN,2.80000
24240,0x000E,1,FALSE,1211.5,4.59538,0.18930,3.65060,NAN,NAN,2.90000
24290,0x000E,1,FALSE,1214.05,4.60468,0.18930,3.64980,NAN,NAN,2.90000
24340,0x000E,1,FALSE,1216.5,4.61362,0.18930,3.64890,NAN,NAN,3.00000
24390,0x000E,1,FALSE,1219.05,4.62292,0.18930,3.64790,NAN,NAN,2.80000
24440,0x000E,1,FALSE,1221.5,4.63185,0.18930,3.64670,NAN,NAN,2.50000
24490,0x000E,1,FALSE,1224,4.64097,0.18930,3.64520,NAN,NAN,2.20000
24540,0x000E,1,FALSE,1226.54,4.65026,0.18930,3.64360,NAN,NAN,2.30000
24590,0x000E,1,FALSE,1228.99,4.65918,0.18930,3.64230,NAN,NAN,2.50000
24640,0x000E,1,FALSE,1231.54,4.66846,0.18930,3.64100,NAN,NAN,2.70000
24690,0x000E,1,FALSE,1233.99,4.67738,0.18930,3.63980,NAN,NAN,2.70000
24740,0x000E,1,FALSE,1236.54,4.68666,0.18930,3.63850,NAN,NAN,2.70000
24790,0x000E,1,FALSE,1238.99,4.69557,0.18930,3.63730,NAN,NAN,2.80000
24840,0x000E,1,FALSE,1241.54,4.70485,0.18930,3.63620,NAN,NAN,2.80000
24890,0x000E,1,FALSE,1243.99,4.71375,0.18930,3.63500,NAN,NAN,2.80000
24940,0x000E,1,FALSE,1246.49,4.72283,0.18930,3.63380,NAN,NAN,2.90000
24990,0x000E,1,FALSE,1249.04,4.73210,0.18930,3.63270,NAN,NAN,2.90000
25040,0x000E,1,FALSE,1251.49,4.74099,0.18930,3.63160,NAN,NAN,3.00000
25090,0x000E,1,FALSE,1254.04,4.75025,0.18930,3.63050,NAN,NAN,3.00000
25140,0x000E,1,FALSE,1256.49,4.75914,0.18930,3.62920,NAN,NAN,2.70000
25190,0x000E,1,FALSE,1259.04,4.76838,0.18930,3.62750,NAN,NAN,2.40000
25240,0x000E,1,FALSE,1261.49,4.77727,0.18930,3.62570,NAN,NAN,2.20000
25290,0x000E,1,FALSE,1264.04,4.78651,0.18930,3.62400,NAN,NAN,2.50000
25340,0x000E,1,FALSE,1266.49,4.79539,0.18930,3.62260,NAN,NAN,2.60000
25390,0x000E,1,FALSE,1268.99,4.80444,0.18930,3.62140,NAN,NAN,2.70000
25440,0x000E,1,FALSE,1271.54,4.81367,0.18930,3.62010,NAN,NAN,2.70000
25490,0x000E,1,FALSE,1273.99,4.82253,0.18930,3.61900,NAN,NAN,2.80000
25540,0x000E,1,FALSE,1276.54,4.83175,0.18930,3.61790,NAN,NAN,2.80000
25590,0x000E,1,FALSE,1278.99,4.84062,0.18930,3.61700,NAN,NAN,2.80000
25640,0x000E,1,FALSE,1281.53,4.84984,0.18930,3.61610,NAN,NAN,2.90000
25690,0x000E,1,FALSE,1283.98,4.85869,0.18930,3.61530,NAN,NAN,2.90000
25740,0x000E,1,FALSE,1286.53,4.86791,0.18930,3.61460,NAN,NAN,3.00000
25790,0x000E,1,FALSE,1288.98,4.87676,0.18930,3.61390,NAN,NAN,3.00000
25840,0x000E,1,FALSE,1291.48,4.88579,0.18930,3.61300,NAN,NAN,2.70000
25890,0x000E,1,FALSE,1294.03,4.89500,0.18930,3.61180,NAN,NAN,2.40000
25940,0x000E,1,FALSE,1296.48,4.90385,0.18930,3.61040,NAN,NAN,2.20000
25990,0x000E,1,FALSE,1299.03,4.91305,0.18930,3.60920,NAN,NAN,2.50000
26040,0x000E,1,FALSE,1301.48,4.92190,0.18930,3.60830,NAN,NAN,2.60000
26090,0x000E,1,FALSE,1304.03,4.93109,0.18930,3.60750,NAN,NAN,2.70000
26140,0x000E,1,FALSE,1306.48,4.93993,0.18930,3.60660,NAN,NAN,2.70000
26190,0x000E,1,FALSE,1309.03,4.94912,0.18930,3.60580,NAN,NAN,2.70000
26240,0x000E,1,FALSE,1311.48,4.95796,0.18930,3.60510,NAN,NAN,2.80000
26290,0x000E,1,FALSE,1313.98,4.96697,0.18930,3.60440,NAN,NAN,2.80000
26340,0x000E,1,FALSE,1316.53,4.97616,0.18930,3.60380,NAN,NAN,2.90000
26390,0x000E,1,FALSE,1318.98,4.98499,0.18930,3.60320,NAN,NAN,2.90000
26440,0x000E,1,FALSE,1321.53,4.99418,0.18930,3.60260,NAN,NAN,3.00000
26490,0x000E,1,FALSE,1323.99,5.00301,0.18930,3.60200,NAN,NAN,3.00000
26540,0x000E,1,FALSE,1326.53,5.01219,0.18930,3.60130,NAN,NAN,2.90000
26590,0x000E,1,FALSE,1328.98,5.02101,0.18930,3.60030,NAN,NAN,2.50000
26640,0x000E,1,FALSE,1331.48,5.03001,0.18930,3.59890,NAN,NAN,2.20000
26690,0x000E,1,FALSE,1334.03,5.03918,0.18930,3.59740,NAN,NAN,2.40000
26740,0x000E,1,FALSE,1336.48,5.04799,0.18930,3.59630,NAN,NAN,2.60000
26790,0x000E,1,FALSE,1339.03,5.05715,0.18930,3.59530,NAN,NAN,2.70000
26840,0x000E,1,FALSE,1341.48,5.06596,0.18930,3.59440,NAN,NAN,2.70000
26890,0x000E,1,FALSE,1344.03,5.07512,0.18930,3.59340,NAN,NAN,2.70000
26940,0x000E,1,FALSE,1346.48,5.08391,0.18930,3.59250,NAN,NAN,2.80000
26990,0x000E,1,FALSE,1349.03,5.09307,0.18930,3.59170,NAN,NAN,2.80000
27040,0x000E,1,FALSE,1351.48,5.10187,0.18930,3.59090,NAN,NAN,2.90000
27090,0x000E,1,FALSE,1353.98,5.11085,0.18930,3.59000,NAN,NAN,2.90000
27140,0x000E,1,FALSE,1356.53,5.12000,0.18930,3.58930,NAN,NAN,2.90000
27190,0x000E,1,FALSE,1358.98,5.12879,0.18930,3.58850,NAN,NAN,3.00000
27240,0x000E,1,FALSE,1361.53,5.13794,0.18930,3.58760,NAN,NAN,2.90000
27290,0x000E,1,FALSE,1363.98,5.14672,0.18930,3.58630,NAN,NAN,2.60000
27340,0x000E,1,FALSE,1366.53,5.15586,0.18930,3.58460,NAN,NAN,2.30000
27390,0x000E,1,FALSE,1368.98,5.16464,0.18930,3.58270,NAN,NAN,2.20000
27440,0x000E,1,FALSE,1371.53,5.17378,0.18930,3.58110,NAN,NAN,2.50000
27490,0x000E,1,FALSE,1373.98,5.18255,0.18930,3.57970,NAN,NAN,2.70000
27540,0x000E,1,FALSE,1376.48,5.19150,0.18930,3.57830,NAN,NAN,2.80000
27590,0x000E,1,FALSE,1379.03,5.20062,0.18930,3.57680,NAN,NAN,2.70000
27640,0x000E,1,FALSE,1381.48,5.20938,0.18930,3.57550,NAN,NAN,2.80000
27690,0x000E,1,FALSE,1384.03,5.21850,0.18930,3.57410,NAN,NAN,2.80000
27740,0x000E,1,FALSE,1386.48,5.22725,0.18930,3.57280,NAN,NAN,2.80000
27790,0x000E,1,FALSE,1389.03,5.23636,0.18930,3.57140,NAN,NAN,2.90000
27840,0x000E,1,FALSE,1391.48,5.24511,0.18930,3.57000,NAN,NAN,2.90000
27890,0x000E,1,FALSE,1394.03,5.25421,0.18930,3.56860,NAN,NAN,3.00000
27940,0x000E,1,FALSE,1396.48,5.26296,0.18930,3.56720,NAN,NAN,3.00000
27990,0x000E,1,FALSE,1398.98,5.27187,0.18930,3.56550,NAN,NAN,2.80000
28040,0x000E,1,FALSE,1401.53,5.28097,0.18930,3.56320,NAN,NAN,2.40000
28090,0x000E,1,FALSE,1403.98,5.28969,0.18930,3.56040,NAN,NAN,2.10000
28140,0x000E,1,FALSE,1406.53,5.29877,0.18930,3.55780,NAN,NAN,2.40000
28190,0x000E,1,FALSE,1408.98,5.30749,0.18930,3.55540,NAN,NAN,2.60000
28240,0x000E,1,FALSE,1411.53,5.31655,0.18930,3.55310,NAN,NAN,2.70000
28290,0x000E,1,FALSE,1413.98,5.32525,0.18930,3.55070,NAN,NAN,2.70000
28340,0x000E,1,FALSE,1416.53,5.33430,0.18930,3.54820,NAN,NAN,2.70000
28390,0x000E,1,FALSE,1418.98,5.34299,0.18930,3.54580,NAN,NAN,2.80000
28440,0x000E,1,FALSE,1421.48,5.35185,0.18930,3.54330,NAN,NAN,2.80000
28490,0x000E,1,FALSE,1424.03,5.36088,0.18930,3.54070,NAN,NAN,2.90000
28540,0x000E,1,FALSE,1426.48,5.36956,0.18930,3.53810,NAN,NAN,2.90000
28590,0x000E,1,FALSE,1429.04,5.37857,0.18930,3.53530,NAN,NAN,3.00000
28640,0x000E,1,FALSE,1431.49,5.38723,0.18930,3.53260,NAN,NAN,3.00000
28690,0x000E,1,FALSE,1434.04,5.39624,0.18930,3.52940,NAN,NAN,3.00000
28740,0x000E,1,FALSE,1436.49,5.40488,0.18930,3.52580,NAN,NAN,2.60000
28790,0x000E,1,FALSE,1439.04,5.41387,0.18930,3.52120,NAN,NAN,2.30000
28840,0x000E,1,FALSE,1441.49,5.42248,0.18930,3.51620,NAN,NAN,2.30000
28890,0x000E,1,FALSE,1443.99,5.43127,0.18930,3.51140,NAN,NAN,2.60000
28940,0x000E,1,FALSE,1446.54,5.44022,0.18930,3.50660,NAN,NAN,2.70000
28990,0x000E,1,FALSE,1448.99,5.44880,0.18930,3.50190,NAN,NAN,2.80000
29040,0x000E,1,FALSE,1451.54,5.45773,0.18930,3.49650,NAN,NAN,2.70000
29090,0x000E,1,FALSE,1453.99,5.46629,0.18930,3.49110,NAN,NAN,2.80000
29140,0x000E,1,FALSE,1456.54,5.47518,0.18930,3.48530,NAN,NAN,2.90000
29190,0x000E,1,FALSE,1458.99,5.48372,0.18930,3.47930,NAN,NAN,2.90000
29240,0x000E,1,FALSE,1461.49,5.49240,0.18930,3.47290,NAN,NAN,3.00000
29290,0x000E,1,FALSE,1464.04,5.50125,0.18930,3.46610,NAN,NAN,3.00000
29340,0x000E,1,FALSE,1466.49,5.50973,0.18930,3.45910,NAN,NAN,3.10000
29390,0x000E,1,FALSE,1469.04,5.51854,0.18930,3.45140,NAN,NAN,3.10000
29440,0x000E,1,FALSE,1471.49,5.52699,0.18930,3.44310,NAN,NAN,2.90000
29490,0x000E,1,FALSE,1474.04,5.53576,0.18930,3.43330,NAN,NAN,2.60000
29540,0x000E,1,FALSE,1476.49,5.54416,0.18930,3.42230,NAN,NAN,2.20000
29590,0x000E,1,FALSE,1479.04,5.55287,0.18930,3.41070,NAN,NAN,2.60000
29640,0x000E,1,FALSE,1481.49,5.56121,0.18930,3.39940,NAN,NAN,2.80000
29690,0x000E,1,FALSE,1483.99,5.56970,0.18930,3.38740,NAN,NAN,2.90000
29740,0x000E,1,FALSE,1486.54,5.57832,0.18930,3.37460,NAN,NAN,2.90000
29790,0x000E,1,FALSE,1488.99,5.58657,0.18930,3.36110,NAN,NAN,2.90000
29840,0x000E,1,FALSE,1491.54,5.59512,0.18930,3.34660,NAN,NAN,3.00000
29890,0x000E,1,FALSE,1493.99,5.60330,0.18930,3.33150,NAN,NAN,3.00000
29940,0x000E,1,FALSE,1496.54,5.61177,0.18930,3.31510,NAN,NAN,3.10000
29990,0x000E,1,FALSE,1498.99,5.61987,0.18930,3.29790,NAN,NAN,3.10000
30040,0x000E,1,FALSE,1501.54,5.62826,0.18930,3.27900,NAN,NAN,3.20000
30090,0x000E,1,FALSE,1503.99,5.63627,0.18930,3.25920,NAN,NAN,3.30000
30140,0x000E,1,FALSE,1506.49,5.64440,0.18930,3.23730,NAN,NAN,3.20000
30190,0x000E,1,FALSE,1509.04,5.65262,0.18930,3.21230,NAN,NAN,2.90000
30240,0x000E,1,FALSE,1511.49,5.66046,0.18930,3.18420,NAN,NAN,2.50000
30290,0x000E,1,FALSE,1514.04,5.66854,0.18930,3.15230,NAN,NAN,2.70000
30340,0x000E,1,FALSE,1516.49,5.67622,0.18930,3.11910,NAN,NAN,2.90000
30390,0x000E,1,FALSE,1519.04,5.68413,0.18930,3.08190,NAN,NAN,3.10000
30440,0x000E,1,FALSE,1521.49,5.69163,0.18930,3.04070,NAN,NAN,3.20000
30490,0x000E,1,FALSE,1524.04,5.69932,0.18930,2.99090,NAN,NAN,3.10000
30540,0x000E,1,FALSE,1526.49,5.70658,0.18930,2.93130,NAN,NAN,3.20000
30590,0x000E,1,FALSE,1528.99,5.71381,0.18930,2.85410,NAN,NAN,3.30000
30640,0x000E,1,FALSE,1531.54,5.72097,0.18930,2.75740,NAN,NAN,3.30000
30643,0x000E,1,FALSE,1531.69,3.89057,0.18940,2.74980,NAN,NAN,3.30000

[DISCHARGE RESULT]
LoRange,FALSE
FinishedBy,1(Cut Voltage)
OpenVolt[V],4.06120
OpenCurr[A],0.00010
OpenTemp[°C],2.30000
StartVolt[V],4.03570
StartCurr[A],0.18890
StartTemp[°C],2.30000
CutoffVolt[V],2.74980
CutoffCurr[A],0.18940
CutoffTemp[°C],3.30000
TimeElapsed[s],30643
Power[Wh],3.89057
StartPulseA[V],NAN
CurrPulseA[V],NAN
StartPulseB[V],NAN
CurrPulseB[V],NAN
TempSet[°C],OFF
TempMon[°C],OFF
HumidSet[%],OFF
HumidMon[%],OFF

[LIFE]
CycleNo,2
Action,Discharge
Start,2021/03/06,21:01:26
End,2021/03/07,5:32:12
Capacity[mAh],1019.97

[IMPEDANCE],AfterCharge,AfterRest
Range,0,0
AutoRange,FALSE,FALSE
Resistance[ohm],NAN,NAN
Reactance[ohm],NAN,NAN