File: csvFiles/20210227/temp20.CSV
[TEST CONDITION]
CondName,バッテリ温度特性試験20210227
ModelID,21
Average,0
CheckDut,FALSE
AutoFine,FALSE
DateTime,2021/02/27,21:40:39
Operator,米山まうむ
Notes,運用に向けてバッテリの温度特性を測定する
運用時の消費電流を鑑み，0.1C放電で行う
なおこんなに運用直前にやることではないので，次期プロジェクトの人間はもっと早い段階で行うことをお勧めする
BatteryName,UF103450P
NominalCapacity[mAh],1800.0
NominalVoltage[V],3.70000
Volume[ml],0.10
Weight[g],38.30
SoftOvp[V],4.40000
SoftUvp[V],2.50000
SoftOah[%],110
SoftOtp[°C],60.00000
DeltaT[s],10.00000
DeltaV[V],0.10000
DeltaI[A],0.10000
ImpRange[ohm],0
Frequency[Hz],1000
AutoRange,FALSE
AfterCharge,FALSE
AfterChargeRest,FALSE
AfterDischarge,FALSE
AfterDischargeRest,FALSE
CapacityRate_C[%],OFF
CapacityRate_D[%],OFF
Impedance_C[ohm],OFF
Impedance_D[ohm],OFF
SeqInfoName,

[CHARGE SHEET]
SheetNo,2
Range,HIGH
Mode,CC-CV
ChargeTime[s],0
RestTime[s],0
Current[A],0.00000
CvVolt[V],0.00000
CvTime[s],0
ItCurrent[A],OFF
ItTime[s],OFF

[DISCHARGE SHEET]
SheetNo,2
Range,HIGH
Mode,CC
DischargeTime[s],43200
RestTime[s],0
Current[A],0.18800
CapacityVolt[V],3.70000
CutoffVolt[V],2.75000

[DISCHARGE MONITOR]
TimeElapsed[s],StdState,OpnState,LowRange,Capacity[mAh],Power[Wh],Curr[A],Volt[V],VoltHi[V],VoltLo[V],Temp[°C],TermState,CellVolt[V],CellVoltHi[V],CellVoltLo[V],CellTemp[°C],(continued)
0,0x000E,0,FALSE,0.00000,0.00000,0.00000,4.09550,NAN,NAN,20.00000
40,0x000E,1,FALSE,2.02519,0.00824,0.18930,4.06660,NAN,NAN,20.00000
90,0x000E,1,FALSE,4.67369,0.01900,0.18930,4.06240,NAN,NAN,20.00000
140,0x000E,1,FALSE,7.22019,0.02935,0.18930,4.05980,NAN,NAN,20.00000
190,0x000E,1,FALSE,9.87050,0.04010,0.18930,4.05770,NAN,NAN,20.00000
240,0x000E,1,FALSE,12.41672,0.05043,0.18930,4.05590,NAN,NAN,20.00000
290,0x000E,1,FALSE,15.06731,0.06118,0.18930,4.05420,NAN,NAN,20.00000
340,0x000E,1,FALSE,17.61336,0.07150,0.18930,4.05260,NAN,NAN,20.00000
390,0x000E,1,FALSE,20.21150,0.08202,0.18930,4.05110,NAN,NAN,20.10000
440,0x000E,1,FALSE,22.86217,0.09276,0.18930,4.04960,NAN,NAN,20.10000
490,0x000E,1,FALSE,25.40817,0.10307,0.18930,4.04820,NAN,NAN,20.10000
540,0x000E,1,FALSE,28.05750,0.11379,0.18930,4.04680,NAN,NAN,20.00000
590,0x000E,1,FALSE,30.60303,0.12409,0.18930,4.04540,NAN,NAN,20.10000
640,0x000E,1,FALSE,33.25217,0.13480,0.18930,4.04400,NAN,NAN,20.10000
690,0x000E,1,FALSE,35.79764,0.14509,0.18930,4.04270,NAN,NAN,20.10000
740,0x000E,1,FALSE,38.44764,0.15580,0.18930,4.04140,NAN,NAN,20.10000
790,0x000E,1,FALSE,40.99414,0.16609,0.18930,4.04010,NAN,NAN,20.10000
840,0x000E,1,FALSE,43.59192,0.17659,0.18930,4.03880,NAN,NAN,20.10000
890,0x000E,1,FALSE,46.24236,0.18729,0.18930,4.03750,NAN,NAN,20.10000
940,0x000E,1,FALSE,48.78900,0.19757,0.18930,4.03630,NAN,NAN,20.10000
990,0x000E,1,FALSE,51.43930,0.20826,0.18930,4.03490,NAN,NAN,20.10000
1040,0x000E,1,FALSE,53.98636,0.21854,0.18930,4.03370,NAN,NAN,20.10000
1090,0x000E,1,FALSE,56.63755,0.22923,0.18930,4.03250,NAN,NAN,20.10000
1140,0x000E,1,FALSE,59.18514,0.23950,0.18930,4.03120,NAN,NAN,20.10000
1190,0x000E,1,FALSE,61.83703,0.25019,0.18930,4.03000,NAN,NAN,20.10000
1240,0x000E,1,FALSE,64.38478,0.26045,0.18930,4.02880,NAN,NAN,20.10000
1290,0x000E,1,FALSE,66.98428,0.27092,0.18930,4.02760,NAN,NAN,20.10000
1340,0x000E,1,FALSE,69.63522,0.28160,0.18930,4.02640,NAN,NAN,20.10000
1390,0x000E,1,FALSE,72.18166,0.29185,0.18930,4.02520,NAN,NAN,20.10000
1440,0x000E,1,FALSE,74.83250,0.30252,0.18930,4.02400,NAN,NAN,20.20000
1490,0x000E,1,FALSE,77.37967,0.31277,0.18930,4.02280,NAN,NAN,20.10000
1540,0x000E,1,FALSE,80.03125,0.32343,0.18930,4.02160,NAN,NAN,20.10000
1590,0x000E,1,FALSE,82.57961,0.33368,0.18930,4.02040,NAN,NAN,20.20000
1640,0x000E,1,FALSE,85.17958,0.34413,0.18930,4.01930,NAN,NAN,20.20000
1690,0x000E,1,FALSE,87.83111,0.35478,0.18930,4.01810,NAN,NAN,20.20000
1740,0x000E,1,FALSE,90.37847,0.36502,0.18930,4.01700,NAN,NAN,20.20000
1790,0x000E,1,FALSE,93.02942,0.37566,0.18930,4.01580,NAN,NAN,20.20000
1840,0x000E,1,FALSE,95.57703,0.38589,0.18930,4.01460,NAN,NAN,20.10000
1890,0x000E,1,FALSE,98.22823,0.39653,0.18930,4.01350,NAN,NAN,20.20000
1940,0x000E,1,FALSE,100.776,0.40675,0.18930,4.01230,NAN,NAN,20.20000
1990,0x000E,1,FALSE,103.427,0.41739,0.18930,4.01120,NAN,NAN,20.20000
2040,0x000E,1,FALSE,105.975,0.42761,0.18930,4.01000,NAN,NAN,20.20000
2090,0x000E,1,FALSE,108.574,0.43803,0.18930,4.00890,NAN,NAN,20.20000
2140,0x000E,1,FALSE,111.225,0.44865,0.18930,4.00770,NAN,NAN,20.20000
2190,0x000E,1,FALSE,113.773,0.45886,0.18930,4.00660,NAN,NAN,20.20000
2240,0x000E,1,FALSE,116.425,0.46948,0.18930,4.00550,NAN,NAN,20.20000
2290,0x000E,1,FALSE,118.972,0.47969,0.18930,4.00430,NAN,NAN,20.20000
2340,0x000E,1,FALSE,121.623,0.49030,0.18930,4.00320,NAN,NAN,20.20000
2390,0x000E,1,FALSE,124.169,0.50049,0.18930,4.00210,NAN,NAN,20.20000
2440,0x000E,1,FALSE,126.821,0.51110,0.18940,4.00090,NAN,NAN,20.20000
2490,0x000E,1,FALSE,129.369,0.52129,0.18930,3.99980,NAN,NAN,20.20000
2540,0x000E,1,FALSE,131.969,0.53169,0.18930,3.99870,NAN,NAN,20.20000
2590,0x000E,1,FALSE,134.621,0.54229,0.18930,3.99750,NAN,NAN,20.20000
2640,0x000E,1,FALSE,137.169,0.55248,0.18940,3.99640,NAN,NAN,20.20000
2690,0x000E,1,FALSE,139.821,0.56307,0.18930,3.99520,NAN,NAN,20.20000
2740,0x000E,1,FALSE,142.369,0.57325,0.18930,3.99410,NAN,NAN,20.20000
2790,0x000E,1,FALSE,145.02,0.58384,0.18930,3.99300,NAN,NAN,20.20000
2840,0x000E,1,FALSE,147.567,0.59400,0.18930,3.99190,NAN,NAN,20.20000
2890,0x000E,1,FALSE,150.217,0.60458,0.18930,3.99080,NAN,NAN,20.20000
2940,0x000E,1,FALSE,152.764,0.61474,0.18930,3.98970,NAN,NAN,20.20000
2990,0x000E,1,FALSE,155.364,0.62511,0.18930,3.98860,NAN,NAN,20.20000
3040,0x000E,1,FALSE,158.015,0.63568,0.18930,3.98750,NAN,NAN,20.20000
3090,0x000E,1,FALSE,160.562,0.64584,0.18930,3.98640,NAN,NAN,20.20000
3140,0x000E,1,FALSE,163.214,0.65641,0.18930,3.98530,NAN,NAN,20.20000
3190,0x000E,1,FALSE,165.762,0.66656,0.18930,3.98420,NAN,NAN,20.20000
3240,0x000E,1,FALSE,168.412,0.67712,0.18930,3.98320,NAN,NAN,20.20000
3290,0x000E,1,FALSE,170.958,0.68726,0.18930,3.98210,NAN,NAN,20.20000
3340,0x000E,1,FALSE,173.609,0.69781,0.18930,3.98100,NAN,NAN,20.20000
3390,0x000E,1,FALSE,176.157,0.70795,0.18930,3.97990,NAN,NAN,20.20000
3440,0x000E,1,FALSE,178.756,0.71830,0.18940,3.97890,NAN,NAN,20.20000
3490,0x000E,1,FALSE,181.408,0.72884,0.18930,3.97780,NAN,NAN,20.20000
3540,0x000E,1,FALSE,183.954,0.73897,0.18930,3.97680,NAN,NAN,20.20000
3590,0x000E,1,FALSE,186.605,0.74951,0.18930,3.97570,NAN,NAN,20.20000
3640,0x000E,1,FALSE,189.151,0.75963,0.18940,3.97470,NAN,NAN,20.20000
3690,0x000E,1,FALSE,191.803,0.77017,0.18930,3.97360,NAN,NAN,20.20000
3740,0x000E,1,FALSE,194.351,0.78029,0.18930,3.97260,NAN,NAN,20.20000
3790,0x000E,1,FALSE,197.003,0.79082,0.18930,3.97150,NAN,NAN,20.20000
3840,0x000E,1,FALSE,199.55,0.80094,0.18930,3.97050,NAN,NAN,20.20000
3890,0x000E,1,FALSE,202.15,0.81126,0.18930,3.96950,NAN,NAN,20.20000
3940,0x000E,1,FALSE,204.802,0.82178,0.18930,3.96850,NAN,NAN,20.20000
3990,0x000E,1,FALSE,207.35,0.83189,0.18930,3.96750,NAN,NAN,20.20000
4040,0x000E,1,FALSE,210.002,0.84242,0.18930,3.96640,NAN,NAN,20.20000
4090,0x000E,1,FALSE,212.551,0.85252,0.18940,3.96550,NAN,NAN,20.20000
4140,0x000E,1,FALSE,215.202,0.86303,0.18940,3.96450,NAN,NAN,20.20000
4190,0x000E,1,FALSE,217.75,0.87313,0.18940,3.96350,NAN,NAN,20.20000
4240,0x000E,1,FALSE,220.35,0.88344,0.18940,3.96250,NAN,NAN,20.20000
4290,0x000E,1,FALSE,223.002,0.89394,0.18940,3.96150,NAN,NAN,20.20000
4340,0x000E,1,FALSE,225.55,0.90403,0.18940,3.96050,NAN,NAN,20.20000
4390,0x000E,1,FALSE,228.202,0.91454,0.18940,3.95950,NAN,NAN,20.20000
4440,0x000E,1,FALSE,230.749,0.92462,0.18940,3.95860,NAN,NAN,20.20000
4490,0x000E,1,FALSE,233.4,0.93511,0.18940,3.95760,NAN,NAN,20.20000
4540,0x000E,1,FALSE,235.949,0.94519,0.18940,3.95660,NAN,NAN,20.20000
4590,0x000E,1,FALSE,238.6,0.95569,0.18930,3.95570,NAN,NAN,20.20000
4640,0x000E,1,FALSE,241.149,0.96576,0.18940,3.95470,NAN,NAN,20.20000
4690,0x000E,1,FALSE,243.748,0.97604,0.18930,3.95380,NAN,NAN,20.20000
4740,0x000E,1,FALSE,246.4,0.98652,0.18940,3.95280,NAN,NAN,20.20000
4790,0x000E,1,FALSE,248.948,0.99660,0.18930,3.95180,NAN,NAN,20.20000
4840,0x000E,1,FALSE,251.601,1.00708,0.18930,3.95090,NAN,NAN,20.20000
4890,0x000E,1,FALSE,254.149,1.01714,0.18930,3.94990,NAN,NAN,20.20000
4940,0x000E,1,FALSE,256.801,1.02761,0.18940,3.94900,NAN,NAN,20.20000
4990,0x000E,1,FALSE,259.348,1.03767,0.18940,3.94800,NAN,NAN,20.30000
5040,0x000E,1,FALSE,261.999,1.04814,0.18930,3.94710,NAN,NAN,20.30000
5090,0x000E,1,FALSE,264.546,1.05819,0.18940,3.94610,NAN,NAN,20.30000
5140,0x000E,1,FALSE,267.146,1.06844,0.18930,3.94520,NAN,NAN,20.30000
5190,0x000E,1,FALSE,269.797,1.07890,0.18930,3.94420,NAN,NAN,20.20000
5240,0x000E,1,FALSE,272.344,1.08894,0.18940,3.94330,NAN,NAN,20.30000
5290,0x000E,1,FALSE,274.995,1.09940,0.18940,3.94240,NAN,NAN,20.20000
5340,0x000E,1,FALSE,277.543,1.10944,0.18940,3.94150,NAN,NAN,20.30000
5390,0x000E,1,FALSE,280.195,1.11989,0.18940,3.94060,NAN,NAN,20.20000
5440,0x000E,1,FALSE,282.742,1.12993,0.18940,3.93960,NAN,NAN,20.20000
5490,0x000E,1,FALSE,285.393,1.14037,0.18930,3.93870,NAN,NAN,20.30000
5540,0x000E,1,FALSE,287.941,1.15040,0.18940,3.93780,NAN,NAN,20.30000
5590,0x000E,1,FALSE,290.54,1.16063,0.18940,3.93690,NAN,NAN,20.20000
5640,0x000E,1,FALSE,293.192,1.17107,0.18940,3.93590,NAN,NAN,20.30000
5690,0x000E,1,FALSE,295.739,1.18110,0.18930,3.93500,NAN,NAN,20.30000
5740,0x000E,1,FALSE,298.39,1.19152,0.18930,3.93410,NAN,NAN,20.30000
5790,0x000E,1,FALSE,300.937,1.20154,0.18930,3.93320,NAN,NAN,20.30000
5840,0x000E,1,FALSE,303.587,1.21197,0.18930,3.93230,NAN,NAN,20.30000
5890,0x000E,1,FALSE,306.135,1.22198,0.18930,3.93140,NAN,NAN,20.30000
5940,0x000E,1,FALSE,308.787,1.23240,0.18930,3.93050,NAN,NAN,20.30000
5990,0x000E,1,FALSE,311.333,1.24241,0.18930,3.92960,NAN,NAN,20.30000
6040,0x000E,1,FALSE,313.932,1.25262,0.18930,3.92860,NAN,NAN,20.30000
6090,0x000E,1,FALSE,316.582,1.26303,0.18940,3.92780,NAN,NAN,20.30000
6140,0x000E,1,FALSE,319.13,1.27304,0.18930,3.92690,NAN,NAN,20.30000
6190,0x000E,1,FALSE,321.781,1.28345,0.18930,3.92590,NAN,NAN,20.30000
6240,0x000E,1,FALSE,324.328,1.29344,0.18940,3.92510,NAN,NAN,20.30000
6290,0x000E,1,FALSE,326.979,1.30385,0.18940,3.92420,NAN,NAN,20.30000
6340,0x000E,1,FALSE,329.527,1.31384,0.18930,3.92330,NAN,NAN,20.30000
6390,0x000E,1,FALSE,332.126,1.32404,0.18940,3.92240,NAN,NAN,20.30000
6440,0x000E,1,FALSE,334.777,1.33444,0.18940,3.92150,NAN,NAN,20.30000
6490,0x000E,1,FALSE,337.325,1.34442,0.18940,3.92060,NAN,NAN,20.30000
6540,0x000E,1,FALSE,339.976,1.35482,0.18940,3.91970,NAN,NAN,20.30000
6590,0x000E,1,FALSE,342.524,1.36480,0.18930,3.91880,NAN,NAN,20.30000
6640,0x000E,1,FALSE,345.175,1.37519,0.18930,3.91790,NAN,NAN,20.30000
6690,0x000E,1,FALSE,347.721,1.38516,0.18930,3.91700,NAN,NAN,20.30000
6740,0x000E,1,FALSE,350.371,1.39554,0.18930,3.91610,NAN,NAN,20.30000
6790,0x000E,1,FALSE,352.918,1.40551,0.18930,3.91520,NAN,NAN,20.30000
6840,0x000E,1,FALSE,355.517,1.41569,0.18940,3.91430,NAN,NAN,20.30000
6890,0x000E,1,FALSE,358.168,1.42606,0.18930,3.91340,NAN,NAN,20.30000
6940,0x000E,1,FALSE,360.717,1.43603,0.18930,3.91260,NAN,NAN,20.30000
6990,0x000E,1,FALSE,363.368,1.44641,0.18930,3.91170,NAN,NAN,20.30000
7040,0x000E,1,FALSE,365.916,1.45637,0.18930,3.91080,NAN,NAN,20.30000
7090,0x000E,1,FALSE,368.568,1.46674,0.18940,3.90990,NAN,NAN,20.30000
7140,0x000E,1,FALSE,371.115,1.47670,0.18940,3.90910,NAN,NAN,20.30000
7190,0x000E,1,FALSE,373.767,1.48706,0.18940,3.90810,NAN,NAN,20.30000
7240,0x000E,1,FALSE,376.314,1.49701,0.18930,3.90730,NAN,NAN,20.30000
7290,0x000E,1,FALSE,378.913,1.50717,0.18930,3.90640,NAN,NAN,20.30000
7340,0x000E,1,FALSE,381.565,1.51753,0.18930,3.90550,NAN,NAN,20.40000
7390,0x000E,1,FALSE,384.113,1.52747,0.18930,3.90470,NAN,NAN,20.30000
7440,0x000E,1,FALSE,386.765,1.53783,0.18930,3.90370,NAN,NAN,20.40000
7490,0x000E,1,FALSE,389.312,1.54777,0.18930,3.90290,NAN,NAN,20.40000
7540,0x000E,1,FALSE,391.963,1.55811,0.18930,3.90200,NAN,NAN,20.40000
7590,0x000E,1,FALSE,394.511,1.56805,0.18930,3.90110,NAN,NAN,20.30000
7640,0x000E,1,FALSE,397.162,1.57839,0.18930,3.90020,NAN,NAN,20.40000
7690,0x000E,1,FALSE,399.708,1.58832,0.18930,3.89940,NAN,NAN,20.30000
7740,0x000E,1,FALSE,402.307,1.59846,0.18940,3.89850,NAN,NAN,20.30000
7790,0x000E,1,FALSE,404.958,1.60879,0.18940,3.89760,NAN,NAN,20.40000
7840,0x000E,1,FALSE,407.506,1.61871,0.18930,3.89670,NAN,NAN,20.40000
7890,0x000E,1,FALSE,410.157,1.62904,0.18930,3.89580,NAN,NAN,20.40000
7940,0x000E,1,FALSE,412.704,1.63897,0.18930,3.89490,NAN,NAN,20.40000
7990,0x000E,1,FALSE,415.354,1.64929,0.18940,3.89400,NAN,NAN,20.40000
8040,0x000E,1,FALSE,417.901,1.65920,0.18930,3.89320,NAN,NAN,20.40000
8090,0x000E,1,FALSE,420.553,1.66952,0.18930,3.89230,NAN,NAN,20.40000
8140,0x000E,1,FALSE,423.101,1.67944,0.18930,3.89140,NAN,NAN,20.40000
8190,0x000E,1,FALSE,425.7,1.68955,0.18930,3.89050,NAN,NAN,20.30000
8240,0x000E,1,FALSE,428.352,1.69987,0.18940,3.88960,NAN,NAN,20.40000
8290,0x000E,1,FALSE,430.9,1.70978,0.18940,3.88870,NAN,NAN,20.40000
8340,0x000E,1,FALSE,433.552,1.72009,0.18940,3.88780,NAN,NAN,20.40000
8390,0x000E,1,FALSE,436.101,1.73000,0.18940,3.88690,NAN,NAN,20.40000
8440,0x000E,1,FALSE,438.752,1.74030,0.18940,3.88590,NAN,NAN,20.30000
8490,0x000E,1,FALSE,441.3,1.75020,0.18940,3.88500,NAN,NAN,20.30000
8540,0x000E,1,FALSE,443.9,1.76030,0.18940,3.88410,NAN,NAN,20.30000
8590,0x000E,1,FALSE,446.552,1.77060,0.18940,3.88320,NAN,NAN,20.30000
8640,0x000E,1,FALSE,449.101,1.78049,0.18940,3.88230,NAN,NAN,20.40000
8690,0x000E,1,FALSE,451.751,1.79078,0.18940,3.88140,NAN,NAN,20.40000
8740,0x000E,1,FALSE,454.298,1.80066,0.18940,3.88040,NAN,NAN,20.40000
8790,0x000E,1,FALSE,456.948,1.81094,0.18930,3.87950,NAN,NAN,20.40000
8840,0x000E,1,FALSE,459.496,1.82082,0.18940,3.87850,NAN,NAN,20.40000
8890,0x000E,1,FALSE,462.148,1.83111,0.18940,3.87760,NAN,NAN,20.30000
8940,0x000E,1,FALSE,464.696,1.84099,0.18940,3.87660,NAN,NAN,20.30000
8990,0x000E,1,FALSE,467.296,1.85107,0.18940,3.87560,NAN,NAN,20.40000
9040,0x000E,1,FALSE,469.948,1.86134,0.18940,3.87470,NAN,NAN,20.40000
9090,0x000E,1,FALSE,472.496,1.87121,0.18930,3.87370,NAN,NAN,20.40000
9140,0x000E,1,FALSE,475.148,1.88148,0.18940,3.87270,NAN,NAN,20.40000
9190,0x000E,1,FALSE,477.695,1.89134,0.18930,3.87180,NAN,NAN,20.40000
9240,0x000E,1,FALSE,480.347,1.90161,0.18940,3.87070,NAN,NAN,20.40000
9290,0x000E,1,FALSE,482.894,1.91147,0.18940,3.86980,NAN,NAN,20.40000
9340,0x000E,1,FALSE,485.546,1.92173,0.18940,3.86880,NAN,NAN,20.40000
9390,0x000E,1,FALSE,488.094,1.93158,0.18930,3.86770,NAN,NAN,20.40000
9440,0x000E,1,FALSE,490.694,1.94164,0.18930,3.86670,NAN,NAN,20.40000
9490,0x000E,1,FALSE,493.346,1.95189,0.18940,3.86560,NAN,NAN,20.40000
9540,0x000E,1,FALSE,495.893,1.96174,0.18930,3.86460,NAN,NAN,20.40000
9590,0x000E,1,FALSE,498.544,1.97198,0.18940,3.86350,NAN,NAN,20.40000
9640,0x000E,1,FALSE,501.092,1.98182,0.18940,3.86250,NAN,NAN,20.40000
9690,0x000E,1,FALSE,503.743,1.99206,0.18940,3.86140,NAN,NAN,20.40000
9740,0x000E,1,FALSE,506.29,2.00189,0.18940,3.86030,NAN,NAN,20.40000
9790,0x000E,1,FALSE,508.941,2.01212,0.18940,3.85920,NAN,NAN,20.40000
9840,0x000E,1,FALSE,511.487,2.02194,0.18930,3.85810,NAN,NAN,20.40000
9890,0x000E,1,FALSE,514.086,2.03197,0.18940,3.85700,NAN,NAN,20.40000
9940,0x000E,1,FALSE,516.738,2.04220,0.18940,3.85580,NAN,NAN,20.40000
9990,0x000E,1,FALSE,519.286,2.05202,0.18940,3.85470,NAN,NAN,20.40000
10040,0x000E,1,FALSE,521.938,2.06224,0.18940,3.85360,NAN,NAN,20.40000
10090,0x000E,1,FALSE,524.485,2.07205,0.18940,3.85240,NAN,NAN,20.40000
10140,0x000E,1,FALSE,527.136,2.08226,0.18940,3.85120,NAN,NAN,20.40000
10190,0x000E,1,FALSE,529.683,2.09207,0.18940,3.85000,NAN,NAN,20.40000
10240,0x000E,1,FALSE,532.335,2.10228,0.18940,3.84880,NAN,NAN,20.40000
10290,0x000E,1,FALSE,534.883,2.11208,0.18940,3.84760,NAN,NAN,20.40000
10340,0x000E,1,FALSE,537.482,2.12208,0.18940,3.84640,NAN,NAN,20.40000
10390,0x000E,1,FALSE,540.132,2.13227,0.18940,3.84510,NAN,NAN,20.40000
10440,0x000E,1,FALSE,542.678,2.14206,0.18940,3.84400,NAN,NAN,20.40000
10490,0x000E,1,FALSE,545.33,2.15225,0.18940,3.84270,NAN,NAN,20.40000
10540,0x000E,1,FALSE,547.877,2.16203,0.18940,3.84150,NAN,NAN,20.40000
10590,0x000E,1,FALSE,550.528,2.17222,0.18940,3.84020,NAN,NAN,20.40000
10640,0x000E,1,FALSE,553.074,2.18199,0.18930,3.83900,NAN,NAN,20.40000
10690,0x000E,1,FALSE,555.673,2.19197,0.18930,3.83780,NAN,NAN,20.40000
10740,0x000E,1,FALSE,558.324,2.20214,0.18940,3.83650,NAN,NAN,20.40000
10790,0x000E,1,FALSE,560.87,2.21190,0.18930,3.83530,NAN,NAN,20.40000
10840,0x000E,1,FALSE,563.521,2.22207,0.18930,3.83400,NAN,NAN,20.40000
10890,0x000E,1,FALSE,566.068,2.23183,0.18940,3.83280,NAN,NAN,20.40000
10940,0x000E,1,FALSE,568.719,2.24199,0.18930,3.83160,NAN,NAN,20.40000
10990,0x000E,1,FALSE,571.267,2.25175,0.18940,3.83030,NAN,NAN,20.40000
11040,0x000E,1,FALSE,573.919,2.26190,0.18930,3.82910,NAN,NAN,20.40000
11090,0x000E,1,FALSE,576.466,2.27166,0.18930,3.82800,NAN,NAN,20.40000
11140,0x000E,1,FALSE,579.065,2.28160,0.18930,3.82680,NAN,NAN,20.40000
11190,0x000E,1,FALSE,581.717,2.29175,0.18940,3.82560,NAN,NAN,20.40000
11240,0x000E,1,FALSE,584.264,2.30149,0.18940,3.82450,NAN,NAN,20.30000
11290,0x000E,1,FALSE,586.915,2.31163,0.18930,3.82340,NAN,NAN,20.30000
11340,0x000E,1,FALSE,589.462,2.32136,0.18940,3.82220,NAN,NAN,20.30000
11390,0x000E,1,FALSE,592.112,2.33149,0.18940,3.82120,NAN,NAN,20.40000
11440,0x000E,1,FALSE,594.658,2.34122,0.18940,3.82010,NAN,NAN,20.40000
11490,0x000E,1,FALSE,597.308,2.35134,0.18930,3.81910,NAN,NAN,20.30000
11540,0x000E,1,FALSE,599.854,2.36106,0.18940,3.81810,NAN,NAN,20.40000
11590,0x000E,1,FALSE,602.452,2.37098,0.18930,3.81710,NAN,NAN,20.30000
11640,0x000E,1,FALSE,605.102,2.38109,0.18940,3.81610,NAN,NAN,20.40000
11690,0x000E,1,FALSE,607.648,2.39080,0.18930,3.81520,NAN,NAN,20.30000
11740,0x000E,1,FALSE,610.299,2.40091,0.18940,3.81420,NAN,NAN,20.40000
11790,0x000E,1,FALSE,612.845,2.41062,0.18940,3.81330,NAN,NAN,20.40000
11840,0x000E,1,FALSE,615.495,2.42073,0.18940,3.81250,NAN,NAN,20.40000
11890,0x000E,1,FALSE,618.041,2.43043,0.18940,3.81160,NAN,NAN,20.40000
11940,0x000E,1,FALSE,620.692,2.44053,0.18940,3.81080,NAN,NAN,20.30000
11990,0x000E,1,FALSE,623.239,2.45024,0.18930,3.81000,NAN,NAN,20.30000
12040,0x000E,1,FALSE,625.839,2.46014,0.18940,3.80910,NAN,NAN,20.30000
12090,0x000E,1,FALSE,628.49,2.47024,0.18930,3.80840,NAN,NAN,20.30000
12140,0x000E,1,FALSE,631.036,2.47994,0.18930,3.80760,NAN,NAN,20.30000
12190,0x000E,1,FALSE,633.687,2.49003,0.18930,3.80690,NAN,NAN,20.30000
12240,0x000E,1,FALSE,636.234,2.49972,0.18940,3.80610,NAN,NAN,20.30000
12290,0x000E,1,FALSE,638.884,2.50981,0.18940,3.80540,NAN,NAN,20.30000
12340,0x000E,1,FALSE,641.431,2.51950,0.18940,3.80470,NAN,NAN,20.30000
12390,0x000E,1,FALSE,644.081,2.52958,0.18930,3.80400,NAN,NAN,20.30000
12440,0x000E,1,FALSE,646.628,2.53927,0.18940,3.80330,NAN,NAN,20.30000
12490,0x000E,1,FALSE,649.228,2.54915,0.18930,3.80270,NAN,NAN,20.30000
12540,0x000E,1,FALSE,651.879,2.55923,0.18940,3.80200,NAN,NAN,20.30000
12590,0x000E,1,FALSE,654.427,2.56892,0.18930,3.80130,NAN,NAN,20.30000
12640,0x000E,1,FALSE,657.078,2.57899,0.18930,3.80070,NAN,NAN,20.30000
12690,0x000E,1,FALSE,659.623,2.58867,0.18930,3.80010,NAN,NAN,20.30000
12740,0x000E,1,FALSE,662.274,2.59874,0.18930,3.79940,NAN,NAN,20.30000
12790,0x000E,1,FALSE,664.821,2.60841,0.18930,3.79880,NAN,NAN,20.30000
12840,0x000E,1,FALSE,667.471,2.61848,0.18930,3.79820,NAN,NAN,20.30000
12890,0x000E,1,FALSE,670.017,2.62815,0.18930,3.79760,NAN,NAN,20.30000
12940,0x000E,1,FALSE,672.617,2.63802,0.18940,3.79700,NAN,NAN,20.30000
12990,0x000E,1,FALSE,675.268,2.64808,0.18930,3.79640,NAN,NAN,20.30000
13040,0x000E,1,FALSE,677.815,2.65775,0.18940,3.79590,NAN,NAN,20.30000
13090,0x000E,1,FALSE,680.466,2.66781,0.18940,3.79520,NAN,NAN,20.30000
13140,0x000E,1,FALSE,683.013,2.67748,0.18930,3.79470,NAN,NAN,20.30000
13190,0x000E,1,FALSE,685.663,2.68753,0.18930,3.79410,NAN,NAN,20.30000
13240,0x000E,1,FALSE,688.21,2.69719,0.18930,3.79360,NAN,NAN,20.30000
13290,0x000E,1,FALSE,690.808,2.70705,0.18930,3.79300,NAN,NAN,20.30000
13340,0x000E,1,FALSE,693.458,2.71710,0.18930,3.79250,NAN,NAN,20.30000
13390,0x000E,1,FALSE,696.004,2.72675,0.18930,3.79190,NAN,NAN,20.30000
13440,0x000E,1,FALSE,698.654,2.73680,0.18930,3.79140,NAN,NAN,20.30000
13490,0x000E,1,FALSE,701.2,2.74645,0.18930,3.79080,NAN,NAN,20.30000
13540,0x000E,1,FALSE,703.85,2.75649,0.18930,3.79030,NAN,NAN,20.30000
13590,0x000E,1,FALSE,706.396,2.76614,0.18930,3.78980,NAN,NAN,20.30000
13640,0x000E,1,FALSE,709.047,2.77619,0.18930,3.78920,NAN,NAN,20.30000
13690,0x000E,1,FALSE,711.594,2.78584,0.18930,3.78870,NAN,NAN,20.30000
13740,0x000E,1,FALSE,714.192,2.79568,0.18930,3.78820,NAN,NAN,20.30000
13790,0x000E,1,FALSE,716.842,2.80572,0.18930,3.78770,NAN,NAN,20.30000
13840,0x000E,1,FALSE,719.39,2.81537,0.18930,3.78720,NAN,NAN,20.30000
13890,0x000E,1,FALSE,722.041,2.82541,0.18930,3.78670,NAN,NAN,20.30000
13940,0x000E,1,FALSE,724.589,2.83505,0.18930,3.78620,NAN,NAN,20.30000
13990,0x000E,1,FALSE,727.241,2.84509,0.18930,3.78570,NAN,NAN,20.30000
14040,0x000E,1,FALSE,729.789,2.85474,0.18930,3.78520,NAN,NAN,20.30000
14090,0x000E,1,FALSE,732.44,2.86477,0.18930,3.78470,NAN,NAN,20.30000
14140,0x000E,1,FALSE,734.988,2.87441,0.18930,3.78410,NAN,NAN,20.30000
14190,0x000E,1,FALSE,737.587,2.88425,0.18930,3.78370,NAN,NAN,20.30000
14240,0x000E,1,FALSE,740.238,2.89428,0.18930,3.78320,NAN,NAN,20.30000
14290,0x000E,1,FALSE,742.785,2.90391,0.18930,3.78270,NAN,NAN,20.30000
14340,0x000E,1,FALSE,745.435,2.91393,0.18930,3.78220,NAN,NAN,20.30000
14390,0x000E,1,FALSE,747.981,2.92356,0.18930,3.78170,NAN,NAN,20.30000
14440,0x000E,1,FALSE,750.632,2.93358,0.18930,3.78120,NAN,NAN,20.30000
14490,0x000E,1,FALSE,753.178,2.94321,0.18930,3.78080,NAN,NAN,20.30000
14540,0x000E,1,FALSE,755.829,2.95323,0.18930,3.78030,NAN,NAN,20.30000
14590,0x000E,1,FALSE,758.376,2.96286,0.18940,3.77980,NAN,NAN,20.30000
14640,0x000E,1,FALSE,760.976,2.97268,0.18930,3.77940,NAN,NAN,20.30000
14690,0x000E,1,FALSE,763.627,2.98270,0.18930,3.77900,NAN,NAN,20.30000
14740,0x000E,1,FALSE,766.174,2.99233,0.18930,3.77850,NAN,NAN,20.30000
14790,0x000E,1,FALSE,768.825,3.00234,0.18940,3.77800,NAN,NAN,20.30000
14840,0x000E,1,FALSE,771.372,3.01196,0.18930,3.77760,NAN,NAN,20.30000
14890,0x000E,1,FALSE,774.022,3.02197,0.18930,3.77710,NAN,NAN,20.30000
14940,0x000E,1,FALSE,776.569,3.03159,0.18930,3.77660,NAN,NAN,20.30000
14990,0x000E,1,FALSE,779.22,3.04160,0.18930,3.77620,NAN,NAN,20.30000
15040,0x000E,1,FALSE,781.765,3.05121,0.18930,3.77580,NAN,NAN,20.30000
15090,0x000E,1,FALSE,784.362,3.06102,0.18930,3.77530,NAN,NAN,20.30000
15140,0x000E,1,FALSE,787.012,3.07102,0.18940,3.77490,NAN,NAN,20.30000
15190,0x000E,1,FALSE,789.559,3.08063,0.18930,3.77450,NAN,NAN,20.30000
15240,0x000E,1,FALSE,792.209,3.09063,0.18930,3.77400,NAN,NAN,20.30000
15290,0x000E,1,FALSE,794.756,3.10025,0.18930,3.77360,NAN,NAN,20.30000
15340,0x000E,1,FALSE,797.408,3.11025,0.18930,3.77320,NAN,NAN,20.30000
15390,0x000E,1,FALSE,799.956,3.11986,0.18930,3.77270,NAN,NAN,20.30000
15440,0x000E,1,FALSE,802.555,3.12967,0.18930,3.77240,NAN,NAN,20.30000
15490,0x000E,1,FALSE,805.207,3.13967,0.18930,3.77190,NAN,NAN,20.30000
15540,0x000E,1,FALSE,807.754,3.14928,0.18930,3.77150,NAN,NAN,20.30000
15590,0x000E,1,FALSE,810.406,3.15928,0.18940,3.77110,NAN,NAN,20.30000
15640,0x000E,1,FALSE,812.953,3.16888,0.18930,3.77070,NAN,NAN,20.30000
15690,0x000E,1,FALSE,815.604,3.17888,0.18930,3.77030,NAN,NAN,20.30000
15740,0x000E,1,FALSE,818.151,3.18848,0.18930,3.76980,NAN,NAN,20.30000
15790,0x000E,1,FALSE,820.802,3.19847,0.18940,3.76940,NAN,NAN,20.30000
15840,0x000E,1,FALSE,823.35,3.20807,0.18940,3.76900,NAN,NAN,20.30000
15890,0x000E,1,FALSE,825.949,3.21787,0.18930,3.76860,NAN,NAN,20.30000
15940,0x000E,1,FALSE,828.6,3.22786,0.18930,3.76820,NAN,NAN,20.30000
15990,0x000E,1,FALSE,831.147,3.23745,0.18930,3.76780,NAN,NAN,20.30000
16040,0x000E,1,FALSE,833.797,3.24744,0.18940,3.76740,NAN,NAN,20.30000
16090,0x000E,1,FALSE,836.343,3.25703,0.18940,3.76700,NAN,NAN,20.30000
16140,0x000E,1,FALSE,838.992,3.26701,0.18940,3.76660,NAN,NAN,20.30000
16190,0x000E,1,FALSE,841.538,3.27659,0.18930,3.76620,NAN,NAN,20.30000
16240,0x000E,1,FALSE,844.188,3.28657,0.18940,3.76590,NAN,NAN,20.30000
16290,0x000E,1,FALSE,846.734,3.29616,0.18940,3.76550,NAN,NAN,20.30000
16340,0x000E,1,FALSE,849.333,3.30594,0.18940,3.76510,NAN,NAN,20.30000
16390,0x000E,1,FALSE,851.982,3.31592,0.18940,3.76470,NAN,NAN,20.30000
16440,0x000E,1,FALSE,854.528,3.32550,0.18930,3.76440,NAN,NAN,20.30000
16490,0x000E,1,FALSE,857.178,3.33547,0.18930,3.76400,NAN,NAN,20.30000
16540,0x000E,1,FALSE,859.724,3.34506,0.18930,3.76360,NAN,NAN,20.30000
16590,0x000E,1,FALSE,862.374,3.35503,0.18940,3.76320,NAN,NAN,20.30000
16640,0x000E,1,FALSE,864.92,3.36461,0.18940,3.76290,NAN,NAN,20.30000
16690,0x000E,1,FALSE,867.569,3.37458,0.18940,3.76250,NAN,NAN,20.30000
16740,0x000E,1,FALSE,870.115,3.38415,0.18930,3.76210,NAN,NAN,20.30000
16790,0x000E,1,FALSE,872.713,3.39393,0.18930,3.76180,NAN,NAN,20.30000
16840,0x000E,1,FALSE,875.362,3.40389,0.18940,3.76140,NAN,NAN,20.30000
16890,0x000E,1,FALSE,877.908,3.41347,0.18930,3.76110,NAN,NAN,20.30000
16940,0x000E,1,FALSE,880.558,3.42343,0.18940,3.76070,NAN,NAN,20.30000
16990,0x000E,1,FALSE,883.103,3.43300,0.18940,3.76040,NAN,NAN,20.30000
17040,0x000E,1,FALSE,885.752,3.44296,0.18930,3.76000,NAN,NAN,20.30000
17090,0x000E,1,FALSE,888.298,3.45253,0.18930,3.75970,NAN,NAN,20.30000
17140,0x000E,1,FALSE,890.947,3.46249,0.18930,3.75930,NAN,NAN,20.30000
17190,0x000E,1,FALSE,893.491,3.47205,0.18930,3.75900,NAN,NAN,20.30000
17240,0x000E,1,FALSE,896.087,3.48181,0.18940,3.75860,NAN,NAN,20.30000
17290,0x000E,1,FALSE,898.736,3.49177,0.18940,3.75830,NAN,NAN,20.30000
17340,0x000E,1,FALSE,901.281,3.50133,0.18940,3.75800,NAN,NAN,20.30000
17390,0x000E,1,FALSE,903.93,3.51129,0.18930,3.75760,NAN,NAN,20.30000
17440,0x000E,1,FALSE,906.476,3.52085,0.18930,3.75730,NAN,NAN,20.30000
17490,0x000E,1,FALSE,909.126,3.53081,0.18930,3.75700,NAN,NAN,20.30000
17540,0x000E,1,FALSE,911.672,3.54037,0.18940,3.75670,NAN,NAN,20.30000
17590,0x000E,1,FALSE,914.269,3.55013,0.18930,3.75630,NAN,NAN,20.30000
17640,0x000E,1,FALSE,916.919,3.56008,0.18940,3.75600,NAN,NAN,20.30000
17690,0x000E,1,FALSE,919.465,3.56964,0.18930,3.75570,NAN,NAN,20.30000
17740,0x000E,1,FALSE,922.114,3.57959,0.18940,3.75530,NAN,NAN,20.30000
17790,0x000E,1,FALSE,924.66,3.58915,0.18930,3.75510,NAN,NAN,20.30000
17840,0x000E,1,FALSE,927.31,3.59910,0.18930,3.75470,NAN,NAN,20.30000
17890,0x000E,1,FALSE,929.856,3.60866,0.18930,3.75440,NAN,NAN,20.30000
17940,0x000E,1,FALSE,932.505,3.61860,0.18930,3.75410,NAN,NAN,20.30000
17990,0x000E,1,FALSE,935.051,3.62816,0.18930,3.75380,NAN,NAN,20.30000
18040,0x000E,1,FALSE,937.649,3.63791,0.18940,3.75350,NAN,NAN,20.30000
18090,0x000E,1,FALSE,940.299,3.64785,0.18930,3.75320,NAN,NAN,20.30000
18140,0x000E,1,FALSE,942.845,3.65741,0.18930,3.75290,NAN,NAN,20.30000
18190,0x000E,1,FALSE,945.495,3.66735,0.18940,3.75260,NAN,NAN,20.30000
18240,0x000E,1,FALSE,948.04,3.67690,0.18930,3.75230,NAN,NAN,20.30000
18290,0x000E,1,FALSE,950.689,3.68684,0.18940,3.75200,NAN,NAN,20.30000
18340,0x000E,1,FALSE,953.234,3.69639,0.18930,3.75170,NAN,NAN,20.30000
18390,0x000E,1,FALSE,955.883,3.70633,0.18940,3.75140,NAN,NAN,20.30000
18440,0x000E,1,FALSE,958.43,3.71588,0.18930,3.75120,NAN,NAN,20.30000
18490,0x000E,1,FALSE,961.028,3.72562,0.18930,3.75090,NAN,NAN,20.30000
18540,0x000E,1,FALSE,963.677,3.73556,0.18930,3.75060,NAN,NAN,20.30000
18590,0x000E,1,FALSE,966.224,3.74511,0.18930,3.75030,NAN,NAN,20.30000
18640,0x000E,1,FALSE,968.874,3.75505,0.18930,3.75000,NAN,NAN,20.30000
18690,0x000E,1,FALSE,971.42,3.76459,0.18930,3.74970,NAN,NAN,20.30000
18740,0x000E,1,FALSE,974.071,3.77453,0.18930,3.74950,NAN,NAN,20.30000
18790,0x000E,1,FALSE,976.617,3.78408,0.18930,3.74920,NAN,NAN,20.30000
18840,0x000E,1,FALSE,979.268,3.79401,0.18930,3.74890,NAN,NAN,20.30000
18890,0x000E,1,FALSE,981.814,3.80356,0.18930,3.74870,NAN,NAN,20.30000
18940,0x000E,1,FALSE,984.412,3.81330,0.18930,3.74840,NAN,NAN,20.30000
18990,0x000E,1,FALSE,987.061,3.82323,0.18940,3.74810,NAN,NAN,20.30000
19040,0x000E,1,FALSE,989.607,3.83277,0.18930,3.74790,NAN,NAN,20.30000
19090,0x000E,1,FALSE,992.257,3.84270,0.18930,3.74760,NAN,NAN,20.30000
19140,0x000E,1,FALSE,994.804,3.85224,0.18930,3.74740,NAN,NAN,20.30000
19190,0x000E,1,FALSE,997.454,3.86217,0.18940,3.74710,NAN,NAN,20.30000
19240,0x000E,1,FALSE,1000,3.87171,0.18930,3.74680,NAN,NAN,20.30000
19290,0x000E,1,FALSE,1002.65,3.88164,0.18930,3.74660,NAN,NAN,20.30000
19340,0x000E,1,FALSE,1005.2,3.89118,0.18930,3.74630,NAN,NAN,20.30000
19390,0x000E,1,FALSE,1007.8,3.90092,0.18930,3.74610,NAN,NAN,20.30000
19440,0x000E,1,FALSE,1010.45,3.91084,0.18940,3.74580,NAN,NAN,20.30000
19490,0x000E,1,FALSE,1012.99,3.92038,0.18940,3.74560,NAN,NAN,20.30000
19540,0x000E,1,FALSE,1015.64,3.93031,0.18930,3.74540,NAN,NAN,20.30000
19590,0x000E,1,FALSE,1018.19,3.93985,0.18940,3.74510,NAN,NAN,20.30000
19640,0x000E,1,FALSE,1020.84,3.94977,0.18930,3.74490,NAN,NAN,20.30000
19690,0x000E,1,FALSE,1023.39,3.95931,0.18930,3.74470,NAN,NAN,20.30000
19740,0x000E,1,FALSE,1026.04,3.96923,0.18930,3.74440,NAN,NAN,20.30000
19790,0x000E,1,FALSE,1028.64,3.97896,0.18930,3.74420,NAN,NAN,20.30000
19840,0x000E,1,FALSE,1031.18,3.98849,0.18930,3.74400,NAN,NAN,20.30000
19890,0x000E,1,FALSE,1033.83,3.99841,0.18930,3.74370,NAN,NAN,20.30000
19940,0x000E,1,FALSE,1036.38,4.00794,0.18930,3.74350,NAN,NAN,20.30000
19990,0x000E,1,FALSE,1039.03,4.01786,0.18930,3.74330,NAN,NAN,20.30000
20040,0x000E,1,FALSE,1041.57,4.02739,0.18930,3.74310,NAN,NAN,20.30000
20090,0x000E,1,FALSE,1044.22,4.03730,0.18930,3.74280,NAN,NAN,20.30000
20140,0x000E,1,FALSE,1046.77,4.04683,0.18930,3.74260,NAN,NAN,20.30000
20190,0x000E,1,FALSE,1049.36,4.05654,0.18930,3.74240,NAN,NAN,20.30000
20240,0x000E,1,FALSE,1052.01,4.06646,0.18930,3.74220,NAN,NAN,20.30000
20290,0x000E,1,FALSE,1054.56,4.07599,0.18930,3.74200,NAN,NAN,20.30000
20340,0x000E,1,FALSE,1057.21,4.08590,0.18930,3.74170,NAN,NAN,20.30000
20390,0x000E,1,FALSE,1059.76,4.09543,0.18930,3.74150,NAN,NAN,20.30000
20440,0x000E,1,FALSE,1062.41,4.10534,0.18930,3.74130,NAN,NAN,20.30000
20490,0x000E,1,FALSE,1064.95,4.11487,0.18930,3.74110,NAN,NAN,20.30000
20540,0x000E,1,FALSE,1067.6,4.12478,0.18930,3.74080,NAN,NAN,20.30000
20590,0x000E,1,FALSE,1070.15,4.13431,0.18930,3.74070,NAN,NAN,20.40000
20640,0x000E,1,FALSE,1072.75,4.14403,0.18930,3.74050,NAN,NAN,20.40000
20690,0x000E,1,FALSE,1075.4,4.15394,0.18930,3.74030,NAN,NAN,20.30000
20740,0x000E,1,FALSE,1077.94,4.16346,0.18930,3.74010,NAN,NAN,20.40000
20790,0x000E,1,FALSE,1080.6,4.17338,0.18930,3.73980,NAN,NAN,20.40000
20840,0x000E,1,FALSE,1083.14,4.18290,0.18930,3.73970,NAN,NAN,20.30000
20890,0x000E,1,FALSE,1085.79,4.19281,0.18930,3.73940,NAN,NAN,20.30000
20940,0x000E,1,FALSE,1088.34,4.20233,0.18930,3.73920,NAN,NAN,20.40000
20990,0x000E,1,FALSE,1090.99,4.21224,0.18930,3.73900,NAN,NAN,20.40000
21040,0x000E,1,FALSE,1093.54,4.22176,0.18930,3.73880,NAN,NAN,20.30000
21090,0x000E,1,FALSE,1096.14,4.23148,0.18930,3.73860,NAN,NAN,20.30000
21140,0x000E,1,FALSE,1098.79,4.24139,0.18930,3.73840,NAN,NAN,20.40000
21190,0x000E,1,FALSE,1101.33,4.25091,0.18930,3.73820,NAN,NAN,20.30000
21240,0x000E,1,FALSE,1103.99,4.26082,0.18930,3.73800,NAN,NAN,20.30000
21290,0x000E,1,FALSE,1106.53,4.27034,0.18930,3.73780,NAN,NAN,20.40000
21340,0x000E,1,FALSE,1109.18,4.28025,0.18930,3.73760,NAN,NAN,20.30000
21390,0x000E,1,FALSE,1111.73,4.28977,0.18930,3.73740,NAN,NAN,20.40000
21440,0x000E,1,FALSE,1114.38,4.29968,0.18940,3.73720,NAN,NAN,20.30000
21490,0x000E,1,FALSE,1116.93,4.30919,0.18930,3.73700,NAN,NAN,20.30000
21540,0x000E,1,FALSE,1119.53,4.31890,0.18930,3.73670,NAN,NAN,20.30000
21590,0x000E,1,FALSE,1122.18,4.32880,0.18930,3.73650,NAN,NAN,20.30000
21640,0x000E,1,FALSE,1124.72,4.33832,0.18930,3.73630,NAN,NAN,20.40000
21690,0x000E,1,FALSE,1127.38,4.34822,0.18930,3.73610,NAN,NAN,20.40000
21740,0x000E,1,FALSE,1129.92,4.35774,0.18930,3.73590,NAN,NAN,20.30000
21790,0x000E,1,FALSE,1132.57,4.36765,0.18930,3.73570,NAN,NAN,20.30000
21840,0x000E,1,FALSE,1135.12,4.37717,0.18930,3.73550,NAN,NAN,20.40000
21890,0x000E,1,FALSE,1137.77,4.38707,0.18930,3.73520,NAN,NAN,20.40000
21940,0x000E,1,FALSE,1140.32,4.39658,0.18940,3.73500,NAN,NAN,20.40000
21990,0x000E,1,FALSE,1142.92,4.40628,0.18930,3.73480,NAN,NAN,20.40000
22040,0x000E,1,FALSE,1145.57,4.41618,0.18930,3.73450,NAN,NAN,20.40000
22090,0x000E,1,FALSE,1148.12,4.42570,0.18930,3.73430,NAN,NAN,20.40000
22140,0x000E,1,FALSE,1150.77,4.43560,0.18940,3.73410,NAN,NAN,20.40000
22190,0x000E,1,FALSE,1153.32,4.44510,0.18930,3.73380,NAN,NAN,20.40000
22240,0x000E,1,FALSE,1155.97,4.45500,0.18940,3.73360,NAN,NAN,20.40000
22290,0x000E,1,FALSE,1158.51,4.46450,0.18930,3.73330,NAN,NAN,20.40000
22340,0x000E,1,FALSE,1161.11,4.47420,0.18930,3.73300,NAN,NAN,20.40000
22390,0x000E,1,FALSE,1163.76,4.48409,0.18930,3.73280,NAN,NAN,20.40000
22440,0x000E,1,FALSE,1166.3,4.49359,0.18930,3.73250,NAN,NAN,20.40000
22490,0x000E,1,FALSE,1168.96,4.50348,0.18930,3.73220,NAN,NAN,20.40000
22540,0x000E,1,FALSE,1171.5,4.51299,0.18930,3.73200,NAN,NAN,20.40000
22590,0x000E,1,FALSE,1174.15,4.52288,0.18940,3.73170,NAN,NAN,20.40000
22640,0x000E,1,FALSE,1176.7,4.53238,0.18930,3.73140,NAN,NAN,20.40000
22690,0x000E,1,FALSE,1179.35,4.54228,0.18930,3.73110,NAN,NAN,20.40000
22740,0x000E,1,FALSE,1181.9,4.55178,0.18930,3.73080,NAN,NAN,20.40000
22790,0x000E,1,FALSE,1184.5,4.56147,0.18930,3.73050,NAN,NAN,20.40000
22840,0x000E,1,FALSE,1187.15,4.57136,0.18930,3.73020,NAN,NAN,20.40000
22890,0x000E,1,FALSE,1189.7,4.58086,0.18930,3.72990,NAN,NAN,20.40000
22940,0x000E,1,FALSE,1192.35,4.59075,0.18930,3.72950,NAN,NAN,20.40000
22990,0x000E,1,FALSE,1194.89,4.60025,0.18930,3.72920,NAN,NAN,20.40000
23040,0x000E,1,FALSE,1197.55,4.61013,0.18930,3.72890,NAN,NAN,20.40000
23090,0x000E,1,FALSE,1200.09,4.61963,0.18930,3.72850,NAN,NAN,20.40000
23140,0x000E,1,FALSE,1202.74,4.62952,0.18930,3.72820,NAN,NAN,20.40000
23190,0x000E,1,FALSE,1205.29,4.63902,0.18930,3.72780,NAN,NAN,20.40000
23240,0x000E,1,FALSE,1207.89,4.64871,0.18930,3.72740,NAN,NAN,20.40000
23290,0x000E,1,FALSE,1210.54,4.65859,0.18930,3.72710,NAN,NAN,20.40000
23340,0x000E,1,FALSE,1213.09,4.66808,0.18930,3.72670,NAN,NAN,20.40000
23390,0x000E,1,FALSE,1215.74,4.67796,0.18930,3.72620,NAN,NAN,20.40000
23440,0x000E,1,FALSE,1218.29,4.68746,0.18930,3.72580,NAN,NAN,20.40000
23490,0x000E,1,FALSE,1220.94,4.69733,0.18930,3.72540,NAN,NAN,20.40000
23540,0x000E,1,FALSE,1223.49,4.70682,0.18930,3.72500,NAN,NAN,20.40000
23590,0x000E,1,FALSE,1226.14,4.71670,0.18940,3.72450,NAN,NAN,20.40000
23640,0x000E,1,FALSE,1228.69,4.72619,0.18940,3.72410,NAN,NAN,20.40000
23690,0x000E,1,FALSE,1231.29,4.73587,0.18940,3.72360,NAN,NAN,20.40000
23740,0x000E,1,FALSE,1233.94,4.74574,0.18930,3.72310,NAN,NAN,20.40000
23790,0x000E,1,FALSE,1236.49,4.75523,0.18930,3.72260,NAN,NAN,20.40000
23840,0x000E,1,FALSE,1239.14,4.76510,0.18930,3.72210,NAN,NAN,20.40000
23890,0x000E,1,FALSE,1241.69,4.77458,0.18940,3.72160,NAN,NAN,20.40000
23940,0x000E,1,FALSE,1244.34,4.78445,0.18930,3.72110,NAN,NAN,20.40000
23990,0x000E,1,FALSE,1246.89,4.79393,0.18930,3.72060,NAN,NAN,20.40000
24040,0x000E,1,FALSE,1249.54,4.80379,0.18930,3.72000,NAN,NAN,20.40000
24090,0x000E,1,FALSE,1252.09,4.81327,0.18930,3.71950,NAN,NAN,20.40000
24140,0x000E,1,FALSE,1254.69,4.82294,0.18930,3.71900,NAN,NAN,20.50000
24190,0x000E,1,FALSE,1257.34,4.83279,0.18930,3.71840,NAN,NAN,20.40000
24240,0x000E,1,FALSE,1259.88,4.84226,0.18930,3.71780,NAN,NAN,20.40000
24290,0x000E,1,FALSE,1262.54,4.85211,0.18940,3.71730,NAN,NAN,20.50000
24340,0x000E,1,FALSE,1265.08,4.86158,0.18930,3.71670,NAN,NAN,20.40000
24390,0x000E,1,FALSE,1267.74,4.87144,0.18930,3.71610,NAN,NAN,20.40000
24440,0x000E,1,FALSE,1270.28,4.88090,0.18940,3.71550,NAN,NAN,20.40000
24490,0x000E,1,FALSE,1272.88,4.89056,0.18930,3.71490,NAN,NAN,20.40000
24540,0x000E,1,FALSE,1275.53,4.90041,0.18940,3.71430,NAN,NAN,20.40000
24590,0x000E,1,FALSE,1278.08,4.90987,0.18930,3.71370,NAN,NAN,20.50000
24640,0x000E,1,FALSE,1280.73,4.91972,0.18930,3.71310,NAN,NAN,20.40000
24690,0x000E,1,FALSE,1283.28,4.92918,0.18930,3.71260,NAN,NAN,20.50000
24740,0x000E,1,FALSE,1285.93,4.93902,0.18930,3.71200,NAN,NAN,20.40000
24790,0x000E,1,FALSE,1288.48,4.94848,0.18930,3.71140,NAN,NAN,20.40000
24840,0x000E,1,FALSE,1291.13,4.95832,0.18930,3.71080,NAN,NAN,20.40000
24890,0x000E,1,FALSE,1293.68,4.96777,0.18930,3.71020,NAN,NAN,20.40000
24940,0x000E,1,FALSE,1296.28,4.97742,0.18930,3.70950,NAN,NAN,20.50000
24990,0x000E,1,FALSE,1298.93,4.98725,0.18930,3.70890,NAN,NAN,20.50000
25040,0x000E,1,FALSE,1301.48,4.99670,0.18930,3.70830,NAN,NAN,20.50000
25090,0x000E,1,FALSE,1304.13,5.00653,0.18930,3.70760,NAN,NAN,20.40000
25140,0x000E,1,FALSE,1306.68,5.01597,0.18930,3.70700,NAN,NAN,20.40000
25190,0x000E,1,FALSE,1309.33,5.02580,0.18940,3.70630,NAN,NAN,20.40000
25240,0x000E,1,FALSE,1311.88,5.03524,0.18930,3.70550,NAN,NAN,20.50000
25290,0x000E,1,FALSE,1314.53,5.04506,0.18940,3.70480,NAN,NAN,20.50000
25340,0x000E,1,FALSE,1317.08,5.05449,0.18940,3.70410,NAN,NAN,20.40000
25390,0x000E,1,FALSE,1319.67,5.06412,0.18940,3.70330,NAN,NAN,20.50000
25440,0x000E,1,FALSE,1322.33,5.07393,0.18940,3.70250,NAN,NAN,20.40000
25490,0x000E,1,FALSE,1324.87,5.08336,0.18940,3.70170,NAN,NAN,20.40000
25540,0x000E,1,FALSE,1327.53,5.09318,0.18940,3.70080,NAN,NAN,20.40000
25590,0x000E,1,FALSE,1330.07,5.10261,0.18940,3.69990,NAN,NAN,20.40000
25640,0x000E,1,FALSE,1332.73,5.11242,0.18940,3.69890,NAN,NAN,20.40000
25690,0x000E,1,FALSE,1335.27,5.12185,0.18940,3.69800,NAN,NAN,20.50000
25740,0x000E,1,FALSE,1337.93,5.13165,0.18940,3.69700,NAN,NAN,20.40000
25790,0x000E,1,FALSE,1340.48,5.14107,0.18940,3.69590,NAN,NAN,20.40000
25840,0x000E,1,FALSE,1343.08,5.15068,0.18940,3.69480,NAN,NAN,20.50000
25890,0x000E,1,FALSE,1345.73,5.16048,0.18940,3.69370,NAN,NAN,20.40000
25940,0x000E,1,FALSE,1348.28,5.16989,0.18940,3.69250,NAN,NAN,20.40000
25990,0x000E,1,FALSE,1350.93,5.17967,0.18940,3.69130,NAN,NAN,20.40000
26040,0x000E,1,FALSE,1353.47,5.18907,0.18940,3.69000,NAN,NAN,20.40000
26090,0x000E,1,FALSE,1356.13,5.19885,0.18940,3.68880,NAN,NAN,20.40000
26140,0x000E,1,FALSE,1358.67,5.20825,0.18940,3.68760,NAN,NAN,20.40000
26190,0x000E,1,FALSE,1361.33,5.21803,0.18940,3.68640,NAN,NAN,20.40000
26240,0x000E,1,FALSE,1363.87,5.22742,0.18940,3.68530,NAN,NAN,20.40000
26290,0x000E,1,FALSE,1366.47,5.23700,0.18940,3.68410,NAN,NAN,20.40000
26340,0x000E,1,FALSE,1369.12,5.24676,0.18940,3.68300,NAN,NAN,20.50000
26390,0x000E,1,FALSE,1371.67,5.25614,0.18940,3.68190,NAN,NAN,20.40000
26440,0x000E,1,FALSE,1374.32,5.26590,0.18930,3.68090,NAN,NAN,20.50000
26490,0x000E,1,FALSE,1376.87,5.27527,0.18940,3.67970,NAN,NAN,20.40000
26540,0x000E,1,FALSE,1379.52,5.28503,0.18930,3.67860,NAN,NAN,20.50000
26590,0x000E,1,FALSE,1382.07,5.29439,0.18930,3.67750,NAN,NAN,20.40000
26640,0x000E,1,FALSE,1384.67,5.30395,0.18940,3.67630,NAN,NAN,20.50000
26690,0x000E,1,FALSE,1387.32,5.31369,0.18940,3.67500,NAN,NAN,20.40000
26740,0x000E,1,FALSE,1389.87,5.32305,0.18940,3.67370,NAN,NAN,20.50000
26790,0x000E,1,FALSE,1392.52,5.33279,0.18940,3.67230,NAN,NAN,20.40000
26840,0x000E,1,FALSE,1395.06,5.34214,0.18940,3.67090,NAN,NAN,20.40000
26890,0x000E,1,FALSE,1397.72,5.35187,0.18940,3.66940,NAN,NAN,20.40000
26940,0x000E,1,FALSE,1400.26,5.36122,0.18940,3.66780,NAN,NAN,20.40000
26990,0x000E,1,FALSE,1402.91,5.37094,0.18940,3.66620,NAN,NAN,20.40000
27040,0x000E,1,FALSE,1405.46,5.38028,0.18940,3.66450,NAN,NAN,20.40000
27090,0x000E,1,FALSE,1408.06,5.38980,0.18940,3.66280,NAN,NAN,20.40000
27140,0x000E,1,FALSE,1410.71,5.39951,0.18940,3.66110,NAN,NAN,20.40000
27190,0x000E,1,FALSE,1413.26,5.40884,0.18940,3.65950,NAN,NAN,20.40000
27240,0x000E,1,FALSE,1415.91,5.41854,0.18940,3.65800,NAN,NAN,20.40000
27290,0x000E,1,FALSE,1418.46,5.42786,0.18940,3.65670,NAN,NAN,20.40000
27340,0x000E,1,FALSE,1421.11,5.43756,0.18940,3.65560,NAN,NAN,20.40000
27390,0x000E,1,FALSE,1423.66,5.44687,0.18940,3.65460,NAN,NAN,20.40000
27440,0x000E,1,FALSE,1426.31,5.45655,0.18930,3.65390,NAN,NAN,20.40000
27490,0x000E,1,FALSE,1428.86,5.46586,0.18930,3.65330,NAN,NAN,20.40000
27540,0x000E,1,FALSE,1431.46,5.47535,0.18940,3.65280,NAN,NAN,20.40000
27590,0x000E,1,FALSE,1434.11,5.48504,0.18940,3.65230,NAN,NAN,20.40000
27640,0x000E,1,FALSE,1436.66,5.49434,0.18940,3.65190,NAN,NAN,20.40000
27690,0x000E,1,FALSE,1439.31,5.50402,0.18940,3.65150,NAN,NAN,20.40000
27740,0x000E,1,FALSE,1441.86,5.51333,0.18940,3.65120,NAN,NAN,20.40000
27790,0x000E,1,FALSE,1444.51,5.52301,0.18940,3.65080,NAN,NAN,20.40000
27840,0x000E,1,FALSE,1447.06,5.53231,0.18930,3.65050,NAN,NAN,20.40000
27890,0x000E,1,FALSE,1449.71,5.54198,0.18940,3.65010,NAN,NAN,20.40000
27940,0x000E,1,FALSE,1452.26,5.55128,0.18940,3.64980,NAN,NAN,20.40000
27990,0x000E,1,FALSE,1454.86,5.56077,0.18940,3.64950,NAN,NAN,20.40000
28040,0x000E,1,FALSE,1457.51,5.57044,0.18940,3.64910,NAN,NAN,20.40000
28090,0x000E,1,FALSE,1460.06,5.57974,0.18940,3.64890,NAN,NAN,20.40000
28140,0x000E,1,FALSE,1462.71,5.58942,0.18940,3.64850,NAN,NAN,20.40000
28190,0x000E,1,FALSE,1465.25,5.59871,0.18940,3.64810,NAN,NAN,20.40000
28240,0x000E,1,FALSE,1467.91,5.60838,0.18940,3.64780,NAN,NAN,20.40000
28290,0x000E,1,FALSE,1470.45,5.61768,0.18940,3.64740,NAN,NAN,20.40000
28340,0x000E,1,FALSE,1473.11,5.62735,0.18940,3.64710,NAN,NAN,20.40000
28390,0x000E,1,FALSE,1475.65,5.63664,0.18940,3.64670,NAN,NAN,20.40000
28440,0x000E,1,FALSE,1478.25,5.64612,0.18940,3.64630,NAN,NAN,20.40000
28490,0x000E,1,FALSE,1480.91,5.65578,0.18940,3.64600,NAN,NAN,20.40000
28540,0x000E,1,FALSE,1483.45,5.66507,0.18940,3.64550,NAN,NAN,20.40000
28590,0x000E,1,FALSE,1486.11,5.67474,0.18940,3.64520,NAN,NAN,20.40000
28640,0x000E,1,FALSE,1488.65,5.68402,0.18940,3.64470,NAN,NAN,20.40000
28690,0x000E,1,FALSE,1491.3,5.69369,0.18940,3.64430,NAN,NAN,20.40000
28740,0x000E,1,FALSE,1493.85,5.70297,0.18940,3.64390,NAN,NAN,20.40000
28790,0x000E,1,FALSE,1496.45,5.71244,0.18940,3.64340,NAN,NAN,20.40000
28840,0x000E,1,FALSE,1499.1,5.72210,0.18940,3.64300,NAN,NAN,20.40000
28890,0x000E,1,FALSE,1501.65,5.73139,0.18930,3.64250,NAN,NAN,20.40000
28940,0x000E,1,FALSE,1504.31,5.74105,0.18940,3.64200,NAN,NAN,20.40000
28990,0x000E,1,FALSE,1506.85,5.75032,0.18940,3.64150,NAN,NAN,20.40000
29040,0x000E,1,FALSE,1509.51,5.75998,0.18940,3.64100,NAN,NAN,20.40000
29090,0x000E,1,FALSE,1512.05,5.76926,0.18940,3.64050,NAN,NAN,20.40000
29140,0x000E,1,FALSE,1514.71,5.77891,0.18940,3.64000,NAN,NAN,20.40000
29190,0x000E,1,FALSE,1517.25,5.78818,0.18940,3.63940,NAN,NAN,20.40000
29240,0x000E,1,FALSE,1519.85,5.79764,0.18940,3.63880,NAN,NAN,20.40000
29290,0x000E,1,FALSE,1522.51,5.80729,0.18940,3.63820,NAN,NAN,20.40000
29340,0x000E,1,FALSE,1525.05,5.81656,0.18940,3.63760,NAN,NAN,20.40000
29390,0x000E,1,FALSE,1527.71,5.82621,0.18940,3.63690,NAN,NAN,20.40000
29440,0x000E,1,FALSE,1530.25,5.83547,0.18940,3.63630,NAN,NAN,20.40000
29490,0x000E,1,FALSE,1532.9,5.84511,0.18940,3.63560,NAN,NAN,20.40000
29540,0x000E,1,FALSE,1535.45,5.85437,0.18940,3.63490,NAN,NAN,20.40000
29590,0x000E,1,FALSE,1538.1,5.86401,0.18940,3.63410,NAN,NAN,20.40000
29640,0x000E,1,FALSE,1540.65,5.87327,0.18940,3.63330,NAN,NAN,20.40000
29690,0x000E,1,FALSE,1543.25,5.88271,0.18940,3.63250,NAN,NAN,20.40000
29740,0x000E,1,FALSE,1545.9,5.89234,0.18940,3.63160,NAN,NAN,20.40000
29790,0x000E,1,FALSE,1548.45,5.90159,0.18940,3.63070,NAN,NAN,20.40000
29840,0x000E,1,FALSE,1551.1,5.91121,0.18940,3.62970,NAN,NAN,20.40000
29890,0x000E,1,FALSE,1553.65,5.92046,0.18940,3.62870,NAN,NAN,20.40000
29940,0x000E,1,FALSE,1556.3,5.93008,0.18940,3.62760,NAN,NAN,20.40000
29990,0x000E,1,FALSE,1558.85,5.93932,0.18940,3.62650,NAN,NAN,20.40000
30040,0x000E,1,FALSE,1561.5,5.94893,0.18940,3.62530,NAN,NAN,20.40000
30090,0x000E,1,FALSE,1564.05,5.95816,0.18940,3.62400,NAN,NAN,20.40000
30140,0x000E,1,FALSE,1566.65,5.96758,0.18940,3.62260,NAN,NAN,20.40000
30190,0x000E,1,FALSE,1569.3,5.97719,0.18940,3.62100,NAN,NAN,20.40000
30240,0x000E,1,FALSE,1571.85,5.98641,0.18940,3.61930,NAN,NAN,20.40000
30290,0x000E,1,FALSE,1574.5,5.99600,0.18940,3.61750,NAN,NAN,20.40000
30340,0x000E,1,FALSE,1577.05,6.00521,0.18940,3.61550,NAN,NAN,20.40000
30390,0x000E,1,FALSE,1579.7,6.01480,0.18940,3.61320,NAN,NAN,20.40000
30440,0x000E,1,FALSE,1582.25,6.02400,0.18940,3.61060,NAN,NAN,20.40000
30490,0x000E,1,FALSE,1584.9,6.03357,0.18940,3.60770,NAN,NAN,20.40000
30540,0x000E,1,FALSE,1587.45,6.04276,0.18940,3.60440,NAN,NAN,20.40000
30590,0x000E,1,FALSE,1590.04,6.05212,0.18940,3.60060,NAN,NAN,20.40000
30640,0x000E,1,FALSE,1592.7,6.06167,0.18940,3.59610,NAN,NAN,20.40000
30690,0x000E,1,FALSE,1595.24,6.07082,0.18940,3.59110,NAN,NAN,20.40000
30740,0x000E,1,FALSE,1597.9,6.08034,0.18940,3.58520,NAN,NAN,20.40000
30790,0x000E,1,FALSE,1600.45,6.08947,0.18940,3.57880,NAN,NAN,20.40000
30840,0x000E,1,FALSE,1603.1,6.09895,0.18940,3.57160,NAN,NAN,20.40000
30890,0x000E,1,FALSE,1605.65,6.10804,0.18940,3.56410,NAN,NAN,20.40000
30940,0x000E,1,FALSE,1608.3,6.11748,0.18940,3.55590,NAN,NAN,20.40000
30990,0x000E,1,FALSE,1610.85,6.12653,0.18940,3.54730,NAN,NAN,20.50000
31040,0x000E,1,FALSE,1613.45,6.13574,0.18940,3.53820,NAN,NAN,20.40000
31090,0x000E,1,FALSE,1616.1,6.14512,0.18940,3.52860,NAN,NAN,20.50000
31140,0x000E,1,FALSE,1618.65,6.15409,0.18940,3.51870,NAN,NAN,20.50000
31190,0x000E,1,FALSE,1621.3,6.16341,0.18940,3.50810,NAN,NAN,20.50000
31240,0x000E,1,FALSE,1623.85,6.17233,0.18940,3.49720,NAN,NAN,20.50000
31290,0x000E,1,FALSE,1626.5,6.18159,0.18930,3.48540,NAN,NAN,20.50000
31340,0x000E,1,FALSE,1629.05,6.19045,0.18940,3.47340,NAN,NAN,20.50000
31390,0x000E,1,FALSE,1631.65,6.19946,0.18940,3.46060,NAN,NAN,20.50000
31440,0x000E,1,FALSE,1634.3,6.20862,0.18940,3.44690,NAN,NAN,20.50000
31490,0x000E,1,FALSE,1636.85,6.21738,0.18940,3.43270,NAN,NAN,20.50000
31540,0x000E,1,FALSE,1639.5,6.22647,0.18940,3.41740,NAN,NAN,20.50000
31590,0x000E,1,FALSE,1642.05,6.23515,0.18940,3.40150,NAN,NAN,20.50000
31640,0x000E,1,FALSE,1644.7,6.24415,0.18940,3.38420,NAN,NAN,20.50000
31690,0x000E,1,FALSE,1647.25,6.25275,0.18940,3.36610,NAN,NAN,20.50000
31740,0x000E,1,FALSE,1649.9,6.26165,0.18940,3.34650,NAN,NAN,20.50000
31790,0x000E,1,FALSE,1652.44,6.27015,0.18940,3.32580,NAN,NAN,20.60000
31840,0x000E,1,FALSE,1655.04,6.27876,0.18940,3.30340,NAN,NAN,20.50000
31890,0x000E,1,FALSE,1657.7,6.28749,0.18940,3.27900,NAN,NAN,20.50000
31940,0x000E,1,FALSE,1660.24,6.29581,0.18940,3.25300,NAN,NAN,20.50000
31990,0x000E,1,FALSE,1662.89,6.30439,0.18940,3.22400,NAN,NAN,20.50000
32040,0x000E,1,FALSE,1665.44,6.31257,0.18940,3.19260,NAN,NAN,20.60000
32090,0x000E,1,FALSE,1668.09,6.32099,0.18940,3.15650,NAN,NAN,20.60000
32140,0x000E,1,FALSE,1670.64,6.32898,0.18940,3.11440,NAN,NAN,20.60000
32190,0x000E,1,FALSE,1673.29,6.33716,0.18940,3.05810,NAN,NAN,20.60000
32240,0x000E,1,FALSE,1675.84,6.34485,0.18940,2.97830,NAN,NAN,20.60000
32290,0x000E,1,FALSE,1678.44,6.35242,0.18940,2.82280,NAN,NAN,20.60000
32305,0x000E,1,FALSE,1679.27,5.09395,0.18930,2.74990,NAN,NAN,20.60000

[DISCHARGE RESULT]
LoRange,FALSE
FinishedBy,1(Cut Voltage)
OpenVolt[V],4.07130
OpenCurr[A],0.00010
OpenTemp[°C],20.00000
StartVolt[V],4.07390
StartCurr[A],0.18910
StartTemp[°C],20.00000
CutoffVolt[V],2.74990
CutoffCurr[A],0.18930
CutoffTemp[°C],20.60000
TimeElapsed[s],32305
Power[Wh],5.09395
StartPulseA[V],NAN
CurrPulseA[V],NAN
StartPulseB[V],NAN
CurrPulseB[V],NAN
TempSet[°C],OFF
TempMon[°C],OFF
HumidSet[%],OFF
HumidMon[%],OFF

[LIFE]
CycleNo,2
Action,Discharge
Start,2021/03/02,22:17:06
End,2021/03/03,7:15:35
Capacity[mAh],1327.73

[IMPEDANCE],AfterCharge,AfterRest
Range,0,0
AutoRange,FALSE,FALSE
Resistance[ohm],NAN,NAN
Reactance[ohm],NAN,NAN