File: csvFiles/20210227/temp7.CSV
[TEST CONDITION]
CondName,バッテリ温度特性試験20210227
ModelID,21
Average,0
CheckDut,FALSE
AutoFine,FALSE
DateTime,2021/02/27,21:40:39
Operator,米山まうむ
Notes,運用に向けてバッテリの温度特性を測定する
運用時の消費電流を鑑み，0.1C放電で行う
なおこんなに運用直前にやることではないので，次期プロジェクトの人間はもっと早い段階で行うことをお勧めする
BatteryName,UF103450P
NominalCapacity[mAh],1800.0
NominalVoltage[V],3.70000
Volume[ml],0.10
Weight[g],38.30
SoftOvp[V],4.40000
SoftUvp[V],2.50000
SoftOah[%],110
SoftOtp[°C],60.00000
DeltaT[s],10.00000
DeltaV[V],0.10000
DeltaI[A],0.10000
ImpRange[ohm],0
Frequency[Hz],1000
AutoRange,FALSE
AfterCharge,FALSE
AfterChargeRest,FALSE
AfterDischarge,FALSE
AfterDischargeRest,FALSE
CapacityRate_C[%],OFF
CapacityRate_D[%],OFF
Impedance_C[ohm],OFF
Impedance_D[ohm],OFF
SeqInfoName,

[CHARGE SHEET]
SheetNo,2
Range,HIGH
Mode,CC-CV
ChargeTime[s],0
RestTime[s],0
Current[A],0.00000
CvVolt[V],0.00000
CvTime[s],0
ItCurrent[A],OFF
ItTime[s],OFF

[DISCHARGE SHEET]
SheetNo,2
Range,HIGH
Mode,CC
DischargeTime[s],43200
RestTime[s],0
Current[A],0.18800
CapacityVolt[V],3.70000
CutoffVolt[V],2.75000

[DISCHARGE MONITOR]
TimeElapsed[s],StdState,OpnState,LowRange,Capacity[mAh],Power[Wh],Curr[A],Volt[V],VoltHi[V],VoltLo[V],Temp[°C],TermState,CellVolt[V],CellVoltHi[V],CellVoltLo[V],CellTemp[°C],(continued)
0,0x000E,0,FALSE,0.00000,0.00000,0.00000,4.08390,NAN,NAN,6.90000
40,0x000E,1,FALSE,1.94156,0.00786,0.18930,4.04340,NAN,NAN,7.10000
90,0x000E,1,FALSE,4.48861,0.01815,0.18930,4.03770,NAN,NAN,7.20000
140,0x000E,1,FALSE,6.93614,0.02802,0.18930,4.03410,NAN,NAN,7.10000
190,0x000E,1,FALSE,9.48258,0.03829,0.18930,4.03130,NAN,NAN,7.10000
240,0x000E,1,FALSE,11.92911,0.04815,0.18930,4.02910,NAN,NAN,7.20000
290,0x000E,1,FALSE,14.47617,0.05841,0.18920,4.02720,NAN,NAN,7.40000
340,0x000E,1,FALSE,16.92447,0.06827,0.18930,4.02540,NAN,NAN,7.50000
390,0x000E,1,FALSE,19.42306,0.07832,0.18930,4.02390,NAN,NAN,7.60000
440,0x000E,1,FALSE,21.97042,0.08857,0.18930,4.02240,NAN,NAN,7.70000
490,0x000E,1,FALSE,24.41845,0.09841,0.18930,4.02100,NAN,NAN,7.70000
540,0x000E,1,FALSE,26.96445,0.10865,0.18930,4.01950,NAN,NAN,7.20000
590,0x000E,1,FALSE,29.41069,0.11848,0.18930,4.01790,NAN,NAN,6.80000
640,0x000E,1,FALSE,31.95803,0.12871,0.18930,4.01620,NAN,NAN,7.00000
690,0x000E,1,FALSE,34.40600,0.13854,0.18930,4.01470,NAN,NAN,7.20000
740,0x000E,1,FALSE,36.95383,0.14877,0.18930,4.01330,NAN,NAN,7.30000
790,0x000E,1,FALSE,39.40142,0.15859,0.18930,4.01200,NAN,NAN,7.20000
840,0x000E,1,FALSE,41.89936,0.16861,0.18930,4.01050,NAN,NAN,7.20000
890,0x000E,1,FALSE,44.44747,0.17882,0.18930,4.00920,NAN,NAN,7.30000
940,0x000E,1,FALSE,46.89531,0.18864,0.18930,4.00790,NAN,NAN,7.40000
990,0x000E,1,FALSE,49.44269,0.19884,0.18930,4.00670,NAN,NAN,7.60000
1040,0x000E,1,FALSE,51.89089,0.20865,0.18920,4.00550,NAN,NAN,7.70000
1090,0x000E,1,FALSE,54.43889,0.21885,0.18920,4.00440,NAN,NAN,7.80000
1140,0x000E,1,FALSE,56.88672,0.22865,0.18930,4.00330,NAN,NAN,7.70000
1190,0x000E,1,FALSE,59.43469,0.23885,0.18930,4.00190,NAN,NAN,7.20000
1240,0x000E,1,FALSE,61.88297,0.24865,0.18930,4.00050,NAN,NAN,6.90000
1290,0x000E,1,FALSE,64.38106,0.25864,0.18930,3.99910,NAN,NAN,7.20000
1340,0x000E,1,FALSE,66.92800,0.26882,0.18920,3.99780,NAN,NAN,7.30000
1390,0x000E,1,FALSE,69.37484,0.27860,0.18930,3.99650,NAN,NAN,7.30000
1440,0x000E,1,FALSE,71.92270,0.28878,0.18930,3.99510,NAN,NAN,7.20000
1490,0x000E,1,FALSE,74.37097,0.29856,0.18920,3.99380,NAN,NAN,7.30000
1540,0x000E,1,FALSE,76.91872,0.30873,0.18930,3.99250,NAN,NAN,7.40000
1590,0x000E,1,FALSE,79.36642,0.31850,0.18930,3.99130,NAN,NAN,7.50000
1640,0x000E,1,FALSE,81.91447,0.32867,0.18930,3.99010,NAN,NAN,7.70000
1690,0x000E,1,FALSE,84.36306,0.33844,0.18930,3.98900,NAN,NAN,7.80000
1740,0x000E,1,FALSE,86.86134,0.34840,0.18930,3.98790,NAN,NAN,7.90000
1790,0x000E,1,FALSE,89.40894,0.35856,0.18920,3.98680,NAN,NAN,7.60000
1840,0x000E,1,FALSE,91.85586,0.36831,0.18920,3.98550,NAN,NAN,7.20000
1890,0x000E,1,FALSE,94.40308,0.37846,0.18930,3.98400,NAN,NAN,6.90000
1940,0x000E,1,FALSE,96.84986,0.38821,0.18930,3.98260,NAN,NAN,7.20000
1990,0x000E,1,FALSE,99.39725,0.39835,0.18930,3.98130,NAN,NAN,7.30000
2040,0x000E,1,FALSE,101.844,0.40809,0.18930,3.98010,NAN,NAN,7.40000
2090,0x000E,1,FALSE,104.34,0.41802,0.18930,3.97870,NAN,NAN,7.20000
2140,0x000E,1,FALSE,106.887,0.42815,0.18930,3.97740,NAN,NAN,7.30000
2190,0x000E,1,FALSE,109.334,0.43788,0.18930,3.97620,NAN,NAN,7.40000
2240,0x000E,1,FALSE,111.881,0.44801,0.18930,3.97500,NAN,NAN,7.50000
2290,0x000E,1,FALSE,114.329,0.45774,0.18920,3.97390,NAN,NAN,7.60000
2340,0x000E,1,FALSE,116.874,0.46785,0.18930,3.97280,NAN,NAN,7.70000
2390,0x000E,1,FALSE,119.319,0.47756,0.18930,3.97180,NAN,NAN,7.80000
2440,0x000E,1,FALSE,121.864,0.48767,0.18920,3.97070,NAN,NAN,7.60000
2490,0x000E,1,FALSE,124.31,0.49738,0.18930,3.96950,NAN,NAN,7.20000
2540,0x000E,1,FALSE,126.806,0.50728,0.18930,3.96810,NAN,NAN,6.90000
2590,0x000E,1,FALSE,129.353,0.51739,0.18930,3.96680,NAN,NAN,7.10000
2640,0x000E,1,FALSE,131.799,0.52709,0.18930,3.96550,NAN,NAN,7.30000
2690,0x000E,1,FALSE,134.345,0.53718,0.18930,3.96430,NAN,NAN,7.30000
2740,0x000E,1,FALSE,136.791,0.54687,0.18930,3.96310,NAN,NAN,7.20000
2790,0x000E,1,FALSE,139.338,0.55697,0.18930,3.96190,NAN,NAN,7.20000
2840,0x000E,1,FALSE,141.784,0.56666,0.18930,3.96070,NAN,NAN,7.30000
2890,0x000E,1,FALSE,144.331,0.57674,0.18930,3.95960,NAN,NAN,7.50000
2940,0x000E,1,FALSE,146.777,0.58643,0.18930,3.95860,NAN,NAN,7.60000
2990,0x000E,1,FALSE,149.273,0.59630,0.18930,3.95760,NAN,NAN,7.70000
3040,0x000E,1,FALSE,151.82,0.60638,0.18930,3.95670,NAN,NAN,7.80000
3090,0x000E,1,FALSE,154.267,0.61606,0.18930,3.95580,NAN,NAN,7.60000
3140,0x000E,1,FALSE,156.813,0.62613,0.18930,3.95460,NAN,NAN,7.10000
3190,0x000E,1,FALSE,159.26,0.63580,0.18930,3.95330,NAN,NAN,6.90000
3240,0x000E,1,FALSE,161.808,0.64587,0.18930,3.95210,NAN,NAN,7.10000
3290,0x000E,1,FALSE,164.255,0.65555,0.18930,3.95090,NAN,NAN,7.20000
3340,0x000E,1,FALSE,166.801,0.66560,0.18930,3.94980,NAN,NAN,7.30000
3390,0x000E,1,FALSE,169.248,0.67527,0.18930,3.94870,NAN,NAN,7.20000
3440,0x000E,1,FALSE,171.745,0.68512,0.18930,3.94760,NAN,NAN,7.20000
3490,0x000E,1,FALSE,174.291,0.69517,0.18930,3.94650,NAN,NAN,7.30000
3540,0x000E,1,FALSE,176.736,0.70482,0.18930,3.94550,NAN,NAN,7.50000
3590,0x000E,1,FALSE,179.282,0.71486,0.18930,3.94460,NAN,NAN,7.60000
3640,0x000E,1,FALSE,181.729,0.72451,0.18930,3.94370,NAN,NAN,7.70000
3690,0x000E,1,FALSE,184.274,0.73455,0.18930,3.94290,NAN,NAN,7.80000
3740,0x000E,1,FALSE,186.72,0.74419,0.18930,3.94200,NAN,NAN,7.50000
3790,0x000E,1,FALSE,189.266,0.75422,0.18930,3.94090,NAN,NAN,7.10000
3840,0x000E,1,FALSE,191.712,0.76386,0.18930,3.93970,NAN,NAN,6.80000
3890,0x000E,1,FALSE,194.207,0.77369,0.18930,3.93860,NAN,NAN,7.10000
3940,0x000E,1,FALSE,196.752,0.78371,0.18930,3.93750,NAN,NAN,7.20000
3990,0x000E,1,FALSE,199.199,0.79334,0.18930,3.93650,NAN,NAN,7.30000
4040,0x000E,1,FALSE,201.744,0.80336,0.18930,3.93540,NAN,NAN,7.20000
4090,0x000E,1,FALSE,204.19,0.81298,0.18920,3.93440,NAN,NAN,7.20000
4140,0x000E,1,FALSE,206.735,0.82300,0.18930,3.93340,NAN,NAN,7.30000
4190,0x000E,1,FALSE,209.181,0.83261,0.18930,3.93250,NAN,NAN,7.50000
4240,0x000E,1,FALSE,211.676,0.84243,0.18930,3.93160,NAN,NAN,7.60000
4290,0x000E,1,FALSE,214.222,0.85243,0.18930,3.93090,NAN,NAN,7.70000
4340,0x000E,1,FALSE,216.668,0.86205,0.18930,3.93010,NAN,NAN,7.80000
4390,0x000E,1,FALSE,219.213,0.87205,0.18930,3.92920,NAN,NAN,7.50000
4440,0x000E,1,FALSE,221.659,0.88165,0.18930,3.92820,NAN,NAN,7.00000
4490,0x000E,1,FALSE,224.204,0.89165,0.18930,3.92700,NAN,NAN,6.90000
4540,0x000E,1,FALSE,226.649,0.90125,0.18930,3.92590,NAN,NAN,7.20000
4590,0x000E,1,FALSE,229.194,0.91124,0.18930,3.92490,NAN,NAN,7.30000
4640,0x000E,1,FALSE,231.638,0.92083,0.18930,3.92390,NAN,NAN,7.30000
4690,0x000E,1,FALSE,234.133,0.93062,0.18930,3.92290,NAN,NAN,7.20000
4740,0x000E,1,FALSE,236.677,0.94060,0.18930,3.92190,NAN,NAN,7.20000
4790,0x000E,1,FALSE,239.122,0.95018,0.18930,3.92090,NAN,NAN,7.40000
4840,0x000E,1,FALSE,241.666,0.96016,0.18930,3.92010,NAN,NAN,7.50000
4890,0x000E,1,FALSE,244.111,0.96974,0.18930,3.91930,NAN,NAN,7.60000
4940,0x000E,1,FALSE,246.655,0.97971,0.18930,3.91850,NAN,NAN,7.70000
4990,0x000E,1,FALSE,249.101,0.98929,0.18930,3.91780,NAN,NAN,7.80000
5040,0x000E,1,FALSE,251.645,0.99926,0.18930,3.91690,NAN,NAN,7.40000
5090,0x000E,1,FALSE,254.091,1.00883,0.18930,3.91580,NAN,NAN,7.00000
5140,0x000E,1,FALSE,256.586,1.01860,0.18930,3.91470,NAN,NAN,7.00000
5190,0x000E,1,FALSE,259.13,1.02856,0.18930,3.91360,NAN,NAN,7.20000
5240,0x000E,1,FALSE,261.575,1.03813,0.18930,3.91260,NAN,NAN,7.30000
5290,0x000E,1,FALSE,264.119,1.04808,0.18930,3.91170,NAN,NAN,7.30000
5340,0x000E,1,FALSE,266.562,1.05763,0.18930,3.91060,NAN,NAN,7.20000
5390,0x000E,1,FALSE,269.106,1.06758,0.18930,3.90960,NAN,NAN,7.20000
5440,0x000E,1,FALSE,271.551,1.07714,0.18930,3.90870,NAN,NAN,7.40000
5490,0x000E,1,FALSE,274.095,1.08708,0.18930,3.90780,NAN,NAN,7.50000
5540,0x000E,1,FALSE,276.54,1.09663,0.18930,3.90700,NAN,NAN,7.60000
5590,0x000E,1,FALSE,279.034,1.10637,0.18930,3.90620,NAN,NAN,7.70000
5640,0x000E,1,FALSE,281.578,1.11631,0.18930,3.90550,NAN,NAN,7.80000
5690,0x000E,1,FALSE,284.022,1.12585,0.18930,3.90460,NAN,NAN,7.50000
5740,0x000E,1,FALSE,286.567,1.13579,0.18930,3.90360,NAN,NAN,7.10000
5790,0x000E,1,FALSE,289.011,1.14533,0.18930,3.90240,NAN,NAN,6.90000
5840,0x000E,1,FALSE,291.555,1.15525,0.18930,3.90130,NAN,NAN,7.20000
5890,0x000E,1,FALSE,294,1.16479,0.18930,3.90040,NAN,NAN,7.30000
5940,0x000E,1,FALSE,296.546,1.17472,0.18930,3.89930,NAN,NAN,7.30000
5990,0x000E,1,FALSE,298.992,1.18425,0.18920,3.89840,NAN,NAN,7.20000
6040,0x000E,1,FALSE,301.488,1.19398,0.18930,3.89730,NAN,NAN,7.30000
6090,0x000E,1,FALSE,304.034,1.20390,0.18930,3.89630,NAN,NAN,7.40000
6140,0x000E,1,FALSE,306.481,1.21344,0.18930,3.89550,NAN,NAN,7.50000
6190,0x000E,1,FALSE,309.027,1.22335,0.18930,3.89460,NAN,NAN,7.60000
6240,0x000E,1,FALSE,311.473,1.23288,0.18930,3.89390,NAN,NAN,7.80000
6290,0x000E,1,FALSE,314.019,1.24279,0.18930,3.89320,NAN,NAN,7.80000
6340,0x000E,1,FALSE,316.466,1.25231,0.18930,3.89230,NAN,NAN,7.40000
6390,0x000E,1,FALSE,318.961,1.26202,0.18930,3.89120,NAN,NAN,7.00000
6440,0x000E,1,FALSE,321.507,1.27193,0.18930,3.89000,NAN,NAN,7.00000
6490,0x000E,1,FALSE,323.953,1.28144,0.18920,3.88890,NAN,NAN,7.20000
6540,0x000E,1,FALSE,326.499,1.29134,0.18930,3.88790,NAN,NAN,7.30000
6590,0x000E,1,FALSE,328.944,1.30084,0.18930,3.88700,NAN,NAN,7.40000
6640,0x000E,1,FALSE,331.488,1.31073,0.18920,3.88590,NAN,NAN,7.20000
6690,0x000E,1,FALSE,333.934,1.32023,0.18930,3.88490,NAN,NAN,7.20000
6740,0x000E,1,FALSE,336.479,1.33012,0.18930,3.88390,NAN,NAN,7.40000
6790,0x000E,1,FALSE,338.926,1.33962,0.18930,3.88300,NAN,NAN,7.60000
6840,0x000E,1,FALSE,341.424,1.34932,0.18930,3.88220,NAN,NAN,7.70000
6890,0x000E,1,FALSE,343.97,1.35920,0.18930,3.88140,NAN,NAN,7.70000
6940,0x000E,1,FALSE,346.416,1.36869,0.18930,3.88060,NAN,NAN,7.90000
6990,0x000E,1,FALSE,348.962,1.37857,0.18930,3.87980,NAN,NAN,7.50000
7040,0x000E,1,FALSE,351.409,1.38806,0.18930,3.87870,NAN,NAN,7.00000
7090,0x000E,1,FALSE,353.955,1.39793,0.18930,3.87750,NAN,NAN,6.90000
7140,0x000E,1,FALSE,356.401,1.40742,0.18930,3.87640,NAN,NAN,7.20000
7190,0x000E,1,FALSE,358.947,1.41729,0.18930,3.87530,NAN,NAN,7.30000
7240,0x000E,1,FALSE,361.393,1.42676,0.18930,3.87430,NAN,NAN,7.40000
7290,0x000E,1,FALSE,363.89,1.43644,0.18930,3.87330,NAN,NAN,7.20000
7340,0x000E,1,FALSE,366.436,1.44629,0.18930,3.87220,NAN,NAN,7.30000
7390,0x000E,1,FALSE,368.883,1.45577,0.18930,3.87120,NAN,NAN,7.40000
7440,0x000E,1,FALSE,371.431,1.46563,0.18920,3.87020,NAN,NAN,7.50000
7490,0x000E,1,FALSE,373.877,1.47510,0.18930,3.86930,NAN,NAN,7.60000
7540,0x000E,1,FALSE,376.425,1.48495,0.18930,3.86850,NAN,NAN,7.80000
7590,0x000E,1,FALSE,378.873,1.49442,0.18930,3.86770,NAN,NAN,7.80000
7640,0x000E,1,FALSE,381.42,1.50427,0.18930,3.86680,NAN,NAN,7.70000
7690,0x000E,1,FALSE,383.868,1.51373,0.18920,3.86580,NAN,NAN,7.20000
7740,0x000E,1,FALSE,386.364,1.52338,0.18920,3.86460,NAN,NAN,6.90000
7790,0x000E,1,FALSE,388.911,1.53322,0.18930,3.86340,NAN,NAN,7.20000
7840,0x000E,1,FALSE,391.358,1.54267,0.18930,3.86220,NAN,NAN,7.30000
7890,0x000E,1,FALSE,393.904,1.55250,0.18930,3.86120,NAN,NAN,7.40000
7940,0x000E,1,FALSE,396.351,1.56195,0.18930,3.86010,NAN,NAN,7.30000
7990,0x000E,1,FALSE,398.897,1.57178,0.18930,3.85890,NAN,NAN,7.20000
8040,0x000E,1,FALSE,401.344,1.58121,0.18920,3.85780,NAN,NAN,7.30000
8090,0x000E,1,FALSE,403.888,1.59103,0.18920,3.85680,NAN,NAN,7.50000
8140,0x000E,1,FALSE,406.334,1.60046,0.18920,3.85590,NAN,NAN,7.60000
8190,0x000E,1,FALSE,408.83,1.61008,0.18930,3.85490,NAN,NAN,7.80000
8240,0x000E,1,FALSE,411.376,1.61989,0.18930,3.85410,NAN,NAN,7.80000
8290,0x000E,1,FALSE,413.822,1.62932,0.18930,3.85320,NAN,NAN,7.70000
8340,0x000E,1,FALSE,416.369,1.63913,0.18920,3.85210,NAN,NAN,7.20000
8390,0x000E,1,FALSE,418.815,1.64855,0.18930,3.85080,NAN,NAN,6.90000
8440,0x000E,1,FALSE,421.363,1.65836,0.18930,3.84950,NAN,NAN,7.20000
8490,0x000E,1,FALSE,423.809,1.66778,0.18930,3.84830,NAN,NAN,7.30000
8540,0x000E,1,FALSE,426.357,1.67758,0.18920,3.84720,NAN,NAN,7.40000
8590,0x000E,1,FALSE,428.854,1.68718,0.18930,3.84600,NAN,NAN,7.30000
8640,0x000E,1,FALSE,431.3,1.69659,0.18920,3.84480,NAN,NAN,7.30000
8690,0x000E,1,FALSE,433.847,1.70638,0.18920,3.84360,NAN,NAN,7.40000
8740,0x000E,1,FALSE,436.294,1.71578,0.18920,3.84250,NAN,NAN,7.50000
8790,0x000E,1,FALSE,438.841,1.72557,0.18930,3.84150,NAN,NAN,7.60000
8840,0x000E,1,FALSE,441.289,1.73497,0.18920,3.84050,NAN,NAN,7.70000
8890,0x000E,1,FALSE,443.835,1.74475,0.18920,3.83950,NAN,NAN,7.80000
8940,0x000E,1,FALSE,446.282,1.75414,0.18920,3.83860,NAN,NAN,7.80000
8990,0x000E,1,FALSE,448.778,1.76372,0.18920,3.83740,NAN,NAN,7.30000
9040,0x000E,1,FALSE,451.324,1.77349,0.18920,3.83610,NAN,NAN,6.90000
9090,0x000E,1,FALSE,453.771,1.78287,0.18920,3.83480,NAN,NAN,7.20000
9140,0x000E,1,FALSE,456.318,1.79263,0.18930,3.83350,NAN,NAN,7.30000
9190,0x000E,1,FALSE,458.766,1.80202,0.18930,3.83230,NAN,NAN,7.40000
9240,0x000E,1,FALSE,461.313,1.81177,0.18930,3.83110,NAN,NAN,7.30000
9290,0x000E,1,FALSE,463.76,1.82115,0.18930,3.82990,NAN,NAN,7.30000
9340,0x000E,1,FALSE,466.307,1.83090,0.18930,3.82860,NAN,NAN,7.40000
9390,0x000E,1,FALSE,468.754,1.84027,0.18930,3.82750,NAN,NAN,7.50000
9440,0x000E,1,FALSE,471.251,1.84982,0.18930,3.82640,NAN,NAN,7.60000
9490,0x000E,1,FALSE,473.797,1.85956,0.18930,3.82540,NAN,NAN,7.70000
9540,0x000E,1,FALSE,476.244,1.86892,0.18930,3.82450,NAN,NAN,7.80000
9590,0x000E,1,FALSE,478.789,1.87865,0.18930,3.82350,NAN,NAN,7.80000
9640,0x000E,1,FALSE,481.235,1.88800,0.18920,3.82240,NAN,NAN,7.30000
9690,0x000E,1,FALSE,483.781,1.89773,0.18930,3.82110,NAN,NAN,6.90000
9740,0x000E,1,FALSE,486.227,1.90707,0.18920,3.81980,NAN,NAN,7.10000
9790,0x000E,1,FALSE,488.771,1.91679,0.18930,3.81860,NAN,NAN,7.30000
9840,0x000E,1,FALSE,491.217,1.92613,0.18920,3.81740,NAN,NAN,7.40000
9890,0x000E,1,FALSE,493.713,1.93566,0.18930,3.81630,NAN,NAN,7.30000
9940,0x000E,1,FALSE,496.258,1.94537,0.18930,3.81510,NAN,NAN,7.30000
9990,0x000E,1,FALSE,498.704,1.95469,0.18920,3.81400,NAN,NAN,7.40000
10040,0x000E,1,FALSE,501.249,1.96440,0.18920,3.81290,NAN,NAN,7.50000
10090,0x000E,1,FALSE,503.695,1.97372,0.18930,3.81200,NAN,NAN,7.60000
10140,0x000E,1,FALSE,506.24,1.98343,0.18920,3.81110,NAN,NAN,7.70000
10190,0x000E,1,FALSE,508.686,1.99274,0.18920,3.81030,NAN,NAN,7.80000
10240,0x000E,1,FALSE,511.231,2.00244,0.18920,3.80940,NAN,NAN,7.80000
10290,0x000E,1,FALSE,513.677,2.01176,0.18930,3.80850,NAN,NAN,7.40000
10340,0x000E,1,FALSE,516.172,2.02126,0.18920,3.80730,NAN,NAN,6.90000
10390,0x000E,1,FALSE,518.717,2.03094,0.18920,3.80620,NAN,NAN,7.10000
10440,0x000E,1,FALSE,521.162,2.04025,0.18920,3.80510,NAN,NAN,7.30000
10490,0x000E,1,FALSE,523.709,2.04994,0.18930,3.80410,NAN,NAN,7.40000
10540,0x000E,1,FALSE,526.155,2.05924,0.18920,3.80320,NAN,NAN,7.40000
10590,0x000E,1,FALSE,528.701,2.06892,0.18920,3.80220,NAN,NAN,7.30000
10640,0x000E,1,FALSE,531.146,2.07822,0.18930,3.80120,NAN,NAN,7.30000
10690,0x000E,1,FALSE,533.691,2.08789,0.18920,3.80040,NAN,NAN,7.50000
10740,0x000E,1,FALSE,536.137,2.09718,0.18930,3.79970,NAN,NAN,7.60000
10790,0x000E,1,FALSE,538.633,2.10667,0.18930,3.79890,NAN,NAN,7.70000
10840,0x000E,1,FALSE,541.178,2.11633,0.18930,3.79820,NAN,NAN,7.80000
10890,0x000E,1,FALSE,543.623,2.12562,0.18930,3.79760,NAN,NAN,7.80000
10940,0x000E,1,FALSE,546.168,2.13528,0.18930,3.79680,NAN,NAN,7.40000
10990,0x000E,1,FALSE,548.614,2.14457,0.18930,3.79580,NAN,NAN,6.90000
11040,0x000E,1,FALSE,551.16,2.15423,0.18930,3.79480,NAN,NAN,7.10000
11090,0x000E,1,FALSE,553.606,2.16351,0.18930,3.79400,NAN,NAN,7.30000
11140,0x000E,1,FALSE,556.101,2.17297,0.18930,3.79320,NAN,NAN,7.40000
11190,0x000E,1,FALSE,558.646,2.18262,0.18930,3.79240,NAN,NAN,7.30000
11240,0x000E,1,FALSE,561.092,2.19190,0.18930,3.79160,NAN,NAN,7.20000
11290,0x000E,1,FALSE,563.639,2.20155,0.18930,3.79080,NAN,NAN,7.30000
11340,0x000E,1,FALSE,566.086,2.21083,0.18930,3.79010,NAN,NAN,7.50000
11390,0x000E,1,FALSE,568.633,2.22048,0.18930,3.78950,NAN,NAN,7.60000
11440,0x000E,1,FALSE,571.079,2.22975,0.18920,3.78890,NAN,NAN,7.70000
11490,0x000E,1,FALSE,573.626,2.23940,0.18930,3.78840,NAN,NAN,7.80000
11540,0x000E,1,FALSE,576.073,2.24866,0.18930,3.78790,NAN,NAN,7.80000
11590,0x000E,1,FALSE,578.569,2.25812,0.18930,3.78730,NAN,NAN,7.40000
11640,0x000E,1,FALSE,581.116,2.26776,0.18930,3.78650,NAN,NAN,7.00000
11690,0x000E,1,FALSE,583.561,2.27702,0.18930,3.78560,NAN,NAN,7.10000
11740,0x000E,1,FALSE,586.107,2.28666,0.18930,3.78480,NAN,NAN,7.20000
11790,0x000E,1,FALSE,588.553,2.29591,0.18930,3.78420,NAN,NAN,7.30000
11840,0x000E,1,FALSE,591.098,2.30554,0.18930,3.78350,NAN,NAN,7.30000
11890,0x000E,1,FALSE,593.544,2.31479,0.18930,3.78280,NAN,NAN,7.20000
11940,0x000E,1,FALSE,596.088,2.32442,0.18930,3.78210,NAN,NAN,7.30000
11990,0x000E,1,FALSE,598.534,2.33366,0.18920,3.78150,NAN,NAN,7.40000
12040,0x000E,1,FALSE,601.029,2.34310,0.18930,3.78100,NAN,NAN,7.60000
12090,0x000E,1,FALSE,603.575,2.35272,0.18930,3.78050,NAN,NAN,7.70000
12140,0x000E,1,FALSE,606.021,2.36197,0.18930,3.78000,NAN,NAN,7.80000
12190,0x000E,1,FALSE,608.567,2.37159,0.18930,3.77970,NAN,NAN,7.80000
12240,0x000E,1,FALSE,611.014,2.38084,0.18930,3.77910,NAN,NAN,7.40000
12290,0x000E,1,FALSE,613.561,2.39046,0.18930,3.77840,NAN,NAN,7.00000
12340,0x000E,1,FALSE,616.008,2.39971,0.18930,3.77760,NAN,NAN,7.00000
12390,0x000E,1,FALSE,618.554,2.40933,0.18930,3.77700,NAN,NAN,7.20000
12440,0x000E,1,FALSE,621.001,2.41857,0.18930,3.77630,NAN,NAN,7.30000
12490,0x000E,1,FALSE,623.498,2.42799,0.18930,3.77570,NAN,NAN,7.40000
12540,0x000E,1,FALSE,626.044,2.43760,0.18930,3.77510,NAN,NAN,7.20000
12590,0x000E,1,FALSE,628.489,2.44683,0.18930,3.77450,NAN,NAN,7.20000
12640,0x000E,1,FALSE,631.034,2.45644,0.18930,3.77400,NAN,NAN,7.40000
12690,0x000E,1,FALSE,633.48,2.46567,0.18930,3.77350,NAN,NAN,7.50000
12740,0x000E,1,FALSE,636.025,2.47527,0.18930,3.77310,NAN,NAN,7.60000
12790,0x000E,1,FALSE,638.472,2.48450,0.18930,3.77270,NAN,NAN,7.80000
12840,0x000E,1,FALSE,641.017,2.49410,0.18930,3.77230,NAN,NAN,7.80000
12890,0x000E,1,FALSE,643.463,2.50333,0.18930,3.77190,NAN,NAN,7.50000
12940,0x000E,1,FALSE,645.96,2.51275,0.18930,3.77130,NAN,NAN,7.00000
12990,0x000E,1,FALSE,648.506,2.52235,0.18930,3.77050,NAN,NAN,6.90000
13040,0x000E,1,FALSE,650.953,2.53157,0.18930,3.76990,NAN,NAN,7.20000
13090,0x000E,1,FALSE,653.499,2.54117,0.18930,3.76930,NAN,NAN,7.30000
13140,0x000E,1,FALSE,655.946,2.55039,0.18930,3.76880,NAN,NAN,7.40000
13190,0x000E,1,FALSE,658.491,2.55998,0.18930,3.76830,NAN,NAN,7.20000
13240,0x000E,1,FALSE,660.938,2.56920,0.18930,3.76770,NAN,NAN,7.30000
13290,0x000E,1,FALSE,663.433,2.57860,0.18930,3.76720,NAN,NAN,7.40000
13340,0x000E,1,FALSE,665.978,2.58818,0.18930,3.76680,NAN,NAN,7.50000
13390,0x000E,1,FALSE,668.423,2.59739,0.18930,3.76640,NAN,NAN,7.70000
13440,0x000E,1,FALSE,670.968,2.60698,0.18930,3.76600,NAN,NAN,7.80000
13490,0x000E,1,FALSE,673.413,2.61618,0.18930,3.76580,NAN,NAN,7.80000
13540,0x000E,1,FALSE,675.958,2.62577,0.18930,3.76540,NAN,NAN,7.50000
13590,0x000E,1,FALSE,678.403,2.63497,0.18930,3.76480,NAN,NAN,7.00000
13640,0x000E,1,FALSE,680.948,2.64455,0.18930,3.76410,NAN,NAN,7.00000
13690,0x000E,1,FALSE,683.393,2.65375,0.18930,3.76350,NAN,NAN,7.20000
13740,0x000E,1,FALSE,685.888,2.66314,0.18930,3.76300,NAN,NAN,7.30000
13790,0x000E,1,FALSE,688.434,2.67272,0.18930,3.76250,NAN,NAN,7.40000
13840,0x000E,1,FALSE,690.88,2.68192,0.18930,3.76200,NAN,NAN,7.20000
13890,0x000E,1,FALSE,693.425,2.69149,0.18930,3.76140,NAN,NAN,7.30000
13940,0x000E,1,FALSE,695.87,2.70069,0.18930,3.76100,NAN,NAN,7.40000
13990,0x000E,1,FALSE,698.416,2.71026,0.18930,3.76060,NAN,NAN,7.50000
14040,0x000E,1,FALSE,700.861,2.71946,0.18930,3.76030,NAN,NAN,7.60000
14090,0x000E,1,FALSE,703.405,2.72902,0.18930,3.76000,NAN,NAN,7.80000
14140,0x000E,1,FALSE,705.85,2.73821,0.18930,3.75970,NAN,NAN,7.80000
14190,0x000E,1,FALSE,708.345,2.74759,0.18930,3.75930,NAN,NAN,7.60000
14240,0x000E,1,FALSE,710.889,2.75716,0.18930,3.75880,NAN,NAN,7.10000
14290,0x000E,1,FALSE,713.334,2.76635,0.18930,3.75820,NAN,NAN,6.90000
14340,0x000E,1,FALSE,715.88,2.77591,0.18930,3.75760,NAN,NAN,7.20000
14390,0x000E,1,FALSE,718.325,2.78510,0.18930,3.75710,NAN,NAN,7.30000
14440,0x000E,1,FALSE,720.87,2.79466,0.18930,3.75660,NAN,NAN,7.40000
14490,0x000E,1,FALSE,723.316,2.80385,0.18930,3.75610,NAN,NAN,7.20000
14540,0x000E,1,FALSE,725.86,2.81340,0.18930,3.75560,NAN,NAN,7.30000
14590,0x000E,1,FALSE,728.305,2.82258,0.18930,3.75520,NAN,NAN,7.40000
14640,0x000E,1,FALSE,730.8,2.83195,0.18930,3.75490,NAN,NAN,7.50000
14690,0x000E,1,FALSE,733.346,2.84151,0.18930,3.75450,NAN,NAN,7.70000
14740,0x000E,1,FALSE,735.791,2.85069,0.18930,3.75430,NAN,NAN,7.80000
14790,0x000E,1,FALSE,738.336,2.86024,0.18930,3.75410,NAN,NAN,7.90000
14840,0x000E,1,FALSE,740.781,2.86942,0.18930,3.75370,NAN,NAN,7.50000
14890,0x000E,1,FALSE,743.325,2.87897,0.18930,3.75330,NAN,NAN,7.00000
14940,0x000E,1,FALSE,745.77,2.88814,0.18930,3.75260,NAN,NAN,7.00000
14990,0x000E,1,FALSE,748.314,2.89769,0.18930,3.75210,NAN,NAN,7.20000
15040,0x000E,1,FALSE,750.76,2.90686,0.18930,3.75160,NAN,NAN,7.30000
15090,0x000E,1,FALSE,753.256,2.91623,0.18930,3.75120,NAN,NAN,7.40000
15140,0x000E,1,FALSE,755.8,2.92577,0.18930,3.75070,NAN,NAN,7.30000
15190,0x000E,1,FALSE,758.245,2.93494,0.18930,3.75030,NAN,NAN,7.30000
15240,0x000E,1,FALSE,760.789,2.94448,0.18930,3.74990,NAN,NAN,7.40000
15290,0x000E,1,FALSE,763.234,2.95364,0.18930,3.74960,NAN,NAN,7.60000
15340,0x000E,1,FALSE,765.778,2.96318,0.18930,3.74930,NAN,NAN,7.70000
15390,0x000E,1,FALSE,768.223,2.97235,0.18930,3.74910,NAN,NAN,7.80000
15440,0x000E,1,FALSE,770.719,2.98170,0.18930,3.74880,NAN,NAN,7.90000
15490,0x000E,1,FALSE,773.264,2.99124,0.18930,3.74850,NAN,NAN,7.50000
15540,0x000E,1,FALSE,775.709,3.00041,0.18930,3.74810,NAN,NAN,7.10000
15590,0x000E,1,FALSE,778.254,3.00995,0.18930,3.74750,NAN,NAN,6.90000
15640,0x000E,1,FALSE,780.7,3.01911,0.18930,3.74700,NAN,NAN,7.20000
15690,0x000E,1,FALSE,783.246,3.02865,0.18920,3.74660,NAN,NAN,7.30000
15740,0x000E,1,FALSE,785.691,3.03781,0.18930,3.74620,NAN,NAN,7.40000
15790,0x000E,1,FALSE,788.236,3.04734,0.18930,3.74580,NAN,NAN,7.30000
15840,0x000E,1,FALSE,790.68,3.05650,0.18930,3.74530,NAN,NAN,7.30000
15890,0x000E,1,FALSE,793.175,3.06584,0.18930,3.74500,NAN,NAN,7.40000
15940,0x000E,1,FALSE,795.72,3.07537,0.18920,3.74470,NAN,NAN,7.60000
15990,0x000E,1,FALSE,798.166,3.08453,0.18930,3.74440,NAN,NAN,7.70000
16040,0x000E,1,FALSE,800.711,3.09405,0.18920,3.74420,NAN,NAN,7.80000
16090,0x000E,1,FALSE,803.156,3.10321,0.18930,3.74400,NAN,NAN,7.90000
16140,0x000E,1,FALSE,805.701,3.11274,0.18930,3.74370,NAN,NAN,7.60000
16190,0x000E,1,FALSE,808.146,3.12189,0.18930,3.74340,NAN,NAN,7.10000
16240,0x000E,1,FALSE,810.692,3.13142,0.18930,3.74280,NAN,NAN,7.00000
16290,0x000E,1,FALSE,813.137,3.14057,0.18930,3.74230,NAN,NAN,7.20000
16340,0x000E,1,FALSE,815.632,3.14990,0.18930,3.74200,NAN,NAN,7.30000
16390,0x000E,1,FALSE,818.177,3.15942,0.18920,3.74160,NAN,NAN,7.40000
16440,0x000E,1,FALSE,820.622,3.16857,0.18930,3.74120,NAN,NAN,7.30000
16490,0x000E,1,FALSE,823.167,3.17809,0.18930,3.74080,NAN,NAN,7.30000
16540,0x000E,1,FALSE,825.612,3.18724,0.18920,3.74050,NAN,NAN,7.40000
16590,0x000E,1,FALSE,828.158,3.19676,0.18930,3.74010,NAN,NAN,7.50000
16640,0x000E,1,FALSE,830.603,3.20590,0.18930,3.74000,NAN,NAN,7.60000
16690,0x000E,1,FALSE,833.149,3.21542,0.18920,3.73980,NAN,NAN,7.80000
16740,0x000E,1,FALSE,835.595,3.22457,0.18930,3.73960,NAN,NAN,7.90000
16790,0x000E,1,FALSE,838.093,3.23391,0.18930,3.73940,NAN,NAN,7.70000
16840,0x000E,1,FALSE,840.64,3.24344,0.18930,3.73910,NAN,NAN,7.30000
16890,0x000E,1,FALSE,843.088,3.25259,0.18930,3.73850,NAN,NAN,6.90000
16940,0x000E,1,FALSE,845.635,3.26211,0.18930,3.73810,NAN,NAN,7.10000
16990,0x000E,1,FALSE,848.082,3.27125,0.18930,3.73770,NAN,NAN,7.30000
17040,0x000E,1,FALSE,850.628,3.28077,0.18930,3.73740,NAN,NAN,7.40000
17090,0x000E,1,FALSE,853.075,3.28991,0.18930,3.73710,NAN,NAN,7.30000
17140,0x000E,1,FALSE,855.621,3.29943,0.18930,3.73670,NAN,NAN,7.30000
17190,0x000E,1,FALSE,858.069,3.30857,0.18930,3.73640,NAN,NAN,7.40000
17240,0x000E,1,FALSE,860.566,3.31790,0.18930,3.73610,NAN,NAN,7.50000
17290,0x000E,1,FALSE,863.114,3.32742,0.18930,3.73590,NAN,NAN,7.60000
17340,0x000E,1,FALSE,865.563,3.33657,0.18930,3.73580,NAN,NAN,7.80000
17390,0x000E,1,FALSE,868.111,3.34608,0.18930,3.73560,NAN,NAN,7.90000
17440,0x000E,1,FALSE,870.558,3.35523,0.18930,3.73550,NAN,NAN,7.80000
17490,0x000E,1,FALSE,873.104,3.36474,0.18930,3.73520,NAN,NAN,7.30000
17540,0x000E,1,FALSE,875.55,3.37387,0.18930,3.73480,NAN,NAN,6.90000
17590,0x000E,1,FALSE,878.097,3.38338,0.18930,3.73430,NAN,NAN,7.10000
17640,0x000E,1,FALSE,880.543,3.39252,0.18930,3.73400,NAN,NAN,7.30000
17690,0x000E,1,FALSE,883.04,3.40184,0.18930,3.73370,NAN,NAN,7.40000
17740,0x000E,1,FALSE,885.587,3.41135,0.18930,3.73340,NAN,NAN,7.30000
17790,0x000E,1,FALSE,888.034,3.42048,0.18930,3.73300,NAN,NAN,7.30000
17840,0x000E,1,FALSE,890.581,3.42999,0.18930,3.73270,NAN,NAN,7.40000
17890,0x000E,1,FALSE,893.028,3.43912,0.18930,3.73250,NAN,NAN,7.50000
17940,0x000E,1,FALSE,895.574,3.44862,0.18930,3.73230,NAN,NAN,7.60000
17990,0x000E,1,FALSE,898.019,3.45775,0.18920,3.73220,NAN,NAN,7.80000
18040,0x000E,1,FALSE,900.514,3.46706,0.18930,3.73210,NAN,NAN,7.80000
18090,0x000E,1,FALSE,903.06,3.47656,0.18930,3.73200,NAN,NAN,7.80000
18140,0x000E,1,FALSE,905.506,3.48569,0.18930,3.73180,NAN,NAN,7.40000
18190,0x000E,1,FALSE,908.051,3.49518,0.18930,3.73140,NAN,NAN,7.00000
18240,0x000E,1,FALSE,910.496,3.50431,0.18920,3.73100,NAN,NAN,7.10000
18290,0x000E,1,FALSE,913.041,3.51380,0.18920,3.73060,NAN,NAN,7.30000
18340,0x000E,1,FALSE,915.487,3.52292,0.18930,3.73030,NAN,NAN,7.40000
18390,0x000E,1,FALSE,918.033,3.53242,0.18930,3.73010,NAN,NAN,7.40000
18440,0x000E,1,FALSE,920.48,3.54155,0.18930,3.72970,NAN,NAN,7.30000
18490,0x000E,1,FALSE,922.975,3.55085,0.18930,3.72950,NAN,NAN,7.40000
18540,0x000E,1,FALSE,925.52,3.56034,0.18930,3.72920,NAN,NAN,7.50000
18590,0x000E,1,FALSE,927.965,3.56946,0.18930,3.72910,NAN,NAN,7.60000
18640,0x000E,1,FALSE,930.511,3.57895,0.18930,3.72890,NAN,NAN,7.70000
18690,0x000E,1,FALSE,932.957,3.58807,0.18930,3.72880,NAN,NAN,7.80000
18740,0x000E,1,FALSE,935.504,3.59757,0.18930,3.72880,NAN,NAN,7.90000
18790,0x000E,1,FALSE,937.95,3.60669,0.18930,3.72860,NAN,NAN,7.50000
18840,0x000E,1,FALSE,940.496,3.61618,0.18930,3.72820,NAN,NAN,7.00000
18890,0x000E,1,FALSE,942.942,3.62530,0.18930,3.72780,NAN,NAN,7.10000
18940,0x000E,1,FALSE,945.438,3.63460,0.18930,3.72750,NAN,NAN,7.30000
18990,0x000E,1,FALSE,947.982,3.64409,0.18930,3.72720,NAN,NAN,7.40000
19040,0x000E,1,FALSE,950.428,3.65320,0.18930,3.72700,NAN,NAN,7.50000
19090,0x000E,1,FALSE,952.973,3.66268,0.18930,3.72670,NAN,NAN,7.30000
19140,0x000E,1,FALSE,955.419,3.67180,0.18930,3.72640,NAN,NAN,7.30000
19190,0x000E,1,FALSE,957.965,3.68129,0.18930,3.72610,NAN,NAN,7.50000
19240,0x000E,1,FALSE,960.412,3.69040,0.18930,3.72600,NAN,NAN,7.60000
19290,0x000E,1,FALSE,962.959,3.69989,0.18930,3.72580,NAN,NAN,7.70000
19340,0x000E,1,FALSE,965.405,3.70900,0.18930,3.72570,NAN,NAN,7.80000
19390,0x000E,1,FALSE,967.901,3.71830,0.18930,3.72570,NAN,NAN,7.90000
19440,0x000E,1,FALSE,970.449,3.72779,0.18930,3.72550,NAN,NAN,7.60000
19490,0x000E,1,FALSE,972.895,3.73691,0.18930,3.72530,NAN,NAN,7.20000
19540,0x000E,1,FALSE,975.441,3.74639,0.18930,3.72480,NAN,NAN,7.00000
19590,0x000E,1,FALSE,977.887,3.75550,0.18930,3.72440,NAN,NAN,7.30000
19640,0x000E,1,FALSE,980.433,3.76498,0.18930,3.72410,NAN,NAN,7.40000
19690,0x000E,1,FALSE,982.878,3.77409,0.18930,3.72390,NAN,NAN,7.50000
19740,0x000E,1,FALSE,985.423,3.78356,0.18930,3.72360,NAN,NAN,7.30000
19790,0x000E,1,FALSE,987.869,3.79267,0.18930,3.72330,NAN,NAN,7.40000
19840,0x000E,1,FALSE,990.365,3.80196,0.18930,3.72300,NAN,NAN,7.50000
19890,0x000E,1,FALSE,992.91,3.81143,0.18930,3.72280,NAN,NAN,7.60000
19940,0x000E,1,FALSE,995.356,3.82054,0.18930,3.72270,NAN,NAN,7.70000
19990,0x000E,1,FALSE,997.903,3.83002,0.18930,3.72260,NAN,NAN,7.80000
20040,0x000E,1,FALSE,1000.35,3.83913,0.18930,3.72250,NAN,NAN,7.90000
20090,0x000E,1,FALSE,1002.9,3.84861,0.18930,3.72240,NAN,NAN,7.80000
20140,0x000E,1,FALSE,1005.34,3.85771,0.18930,3.72210,NAN,NAN,7.30000
20190,0x000E,1,FALSE,1007.84,3.86700,0.18930,3.72170,NAN,NAN,6.90000
20240,0x000E,1,FALSE,1010.39,3.87648,0.18930,3.72120,NAN,NAN,7.20000
20290,0x000E,1,FALSE,1012.83,3.88558,0.18930,3.72090,NAN,NAN,7.40000
20340,0x000E,1,FALSE,1015.38,3.89505,0.18930,3.72070,NAN,NAN,7.50000
20390,0x000E,1,FALSE,1017.83,3.90416,0.18930,3.72040,NAN,NAN,7.40000
20440,0x000E,1,FALSE,1020.37,3.91363,0.18930,3.72000,NAN,NAN,7.30000
20490,0x000E,1,FALSE,1022.82,3.92273,0.18930,3.71970,NAN,NAN,7.40000
20540,0x000E,1,FALSE,1025.36,3.93220,0.18930,3.71950,NAN,NAN,7.60000
20590,0x000E,1,FALSE,1027.81,3.94130,0.18930,3.71930,NAN,NAN,7.70000
20640,0x000E,1,FALSE,1030.31,3.95059,0.18930,3.71910,NAN,NAN,7.80000
20690,0x000E,1,FALSE,1032.86,3.96006,0.18930,3.71900,NAN,NAN,7.90000
20740,0x000E,1,FALSE,1035.3,3.96916,0.18930,3.71890,NAN,NAN,7.90000
20790,0x000E,1,FALSE,1037.85,3.97863,0.18930,3.71860,NAN,NAN,7.40000
20840,0x000E,1,FALSE,1040.3,3.98773,0.18930,3.71820,NAN,NAN,7.00000
20890,0x000E,1,FALSE,1042.84,3.99720,0.18930,3.71770,NAN,NAN,7.20000
20940,0x000E,1,FALSE,1045.29,4.00629,0.18930,3.71730,NAN,NAN,7.40000
20990,0x000E,1,FALSE,1047.84,4.01575,0.18930,3.71700,NAN,NAN,7.50000
21040,0x000E,1,FALSE,1050.28,4.02484,0.18930,3.71670,NAN,NAN,7.50000
21090,0x000E,1,FALSE,1052.78,4.03412,0.18930,3.71630,NAN,NAN,7.40000
21140,0x000E,1,FALSE,1055.33,4.04359,0.18930,3.71600,NAN,NAN,7.40000
21190,0x000E,1,FALSE,1057.77,4.05268,0.18930,3.71570,NAN,NAN,7.60000
21240,0x000E,1,FALSE,1060.32,4.06214,0.18930,3.71540,NAN,NAN,7.70000
21290,0x000E,1,FALSE,1062.77,4.07123,0.18930,3.71530,NAN,NAN,7.80000
21340,0x000E,1,FALSE,1065.31,4.08069,0.18930,3.71510,NAN,NAN,7.90000
21390,0x000E,1,FALSE,1067.76,4.08978,0.18930,3.71490,NAN,NAN,8.00000
21440,0x000E,1,FALSE,1070.31,4.09924,0.18930,3.71460,NAN,NAN,7.60000
21490,0x000E,1,FALSE,1072.75,4.10833,0.18930,3.71430,NAN,NAN,7.20000
21540,0x000E,1,FALSE,1075.25,4.11760,0.18930,3.71370,NAN,NAN,7.10000
21590,0x000E,1,FALSE,1077.8,4.12706,0.18930,3.71330,NAN,NAN,7.40000
21640,0x000E,1,FALSE,1080.24,4.13614,0.18930,3.71290,NAN,NAN,7.50000
21690,0x000E,1,FALSE,1082.79,4.14559,0.18930,3.71250,NAN,NAN,7.60000
21740,0x000E,1,FALSE,1085.23,4.15466,0.18930,3.71210,NAN,NAN,7.40000
21790,0x000E,1,FALSE,1087.78,4.16411,0.18930,3.71170,NAN,NAN,7.40000
21840,0x000E,1,FALSE,1090.23,4.17319,0.18930,3.71130,NAN,NAN,7.50000
21890,0x000E,1,FALSE,1092.77,4.18265,0.18930,3.71100,NAN,NAN,7.70000
21940,0x000E,1,FALSE,1095.22,4.19172,0.18930,3.71070,NAN,NAN,7.80000
21990,0x000E,1,FALSE,1097.72,4.20099,0.18930,3.71050,NAN,NAN,7.90000
22040,0x000E,1,FALSE,1100.26,4.21044,0.18930,3.71030,NAN,NAN,8.00000
22090,0x000E,1,FALSE,1102.71,4.21952,0.18930,3.71000,NAN,NAN,7.80000
22140,0x000E,1,FALSE,1105.26,4.22896,0.18930,3.70950,NAN,NAN,7.30000
22190,0x000E,1,FALSE,1107.7,4.23804,0.18930,3.70890,NAN,NAN,7.10000
22240,0x000E,1,FALSE,1110.25,4.24749,0.18930,3.70840,NAN,NAN,7.40000
22290,0x000E,1,FALSE,1112.7,4.25656,0.18930,3.70800,NAN,NAN,7.50000
22340,0x000E,1,FALSE,1115.2,4.26582,0.18930,3.70750,NAN,NAN,7.60000
22390,0x000E,1,FALSE,1117.74,4.27527,0.18930,3.70700,NAN,NAN,7.40000
22440,0x000E,1,FALSE,1120.19,4.28434,0.18930,3.70650,NAN,NAN,7.40000
22490,0x000E,1,FALSE,1122.74,4.29378,0.18930,3.70610,NAN,NAN,7.50000
22540,0x000E,1,FALSE,1125.19,4.30286,0.18930,3.70560,NAN,NAN,7.70000
22590,0x000E,1,FALSE,1127.74,4.31230,0.18930,3.70530,NAN,NAN,7.80000
22640,0x000E,1,FALSE,1130.19,4.32136,0.18930,3.70490,NAN,NAN,7.90000
22690,0x000E,1,FALSE,1132.73,4.33080,0.18930,3.70460,NAN,NAN,8.00000
22740,0x000E,1,FALSE,1135.18,4.33987,0.18930,3.70430,NAN,NAN,7.90000
22790,0x000E,1,FALSE,1137.68,4.34911,0.18930,3.70380,NAN,NAN,7.50000
22840,0x000E,1,FALSE,1140.22,4.35854,0.18930,3.70320,NAN,NAN,7.10000
22890,0x000E,1,FALSE,1142.67,4.36760,0.18930,3.70250,NAN,NAN,7.30000
22940,0x000E,1,FALSE,1145.22,4.37703,0.18930,3.70190,NAN,NAN,7.50000
22990,0x000E,1,FALSE,1147.66,4.38609,0.18930,3.70140,NAN,NAN,7.60000
23040,0x000E,1,FALSE,1150.21,4.39551,0.18930,3.70080,NAN,NAN,7.50000
23090,0x000E,1,FALSE,1152.66,4.40456,0.18930,3.70020,NAN,NAN,7.50000
23140,0x000E,1,FALSE,1155.2,4.41398,0.18930,3.69960,NAN,NAN,7.50000
23190,0x000E,1,FALSE,1157.65,4.42304,0.18930,3.69910,NAN,NAN,7.70000
23240,0x000E,1,FALSE,1160.15,4.43227,0.18930,3.69860,NAN,NAN,7.80000
23290,0x000E,1,FALSE,1162.69,4.44169,0.18930,3.69820,NAN,NAN,7.90000
23340,0x000E,1,FALSE,1165.14,4.45074,0.18930,3.69770,NAN,NAN,8.00000
23390,0x000E,1,FALSE,1167.69,4.46016,0.18930,3.69730,NAN,NAN,7.90000
23440,0x000E,1,FALSE,1170.14,4.46921,0.18930,3.69670,NAN,NAN,7.50000
23490,0x000E,1,FALSE,1172.68,4.47862,0.18930,3.69590,NAN,NAN,7.10000
23540,0x000E,1,FALSE,1175.13,4.48767,0.18930,3.69510,NAN,NAN,7.40000
23590,0x000E,1,FALSE,1177.68,4.49708,0.18930,3.69440,NAN,NAN,7.50000
23640,0x000E,1,FALSE,1180.13,4.50612,0.18930,3.69380,NAN,NAN,7.60000
23690,0x000E,1,FALSE,1182.62,4.51534,0.18930,3.69310,NAN,NAN,7.50000
23740,0x000E,1,FALSE,1185.17,4.52474,0.18930,3.69240,NAN,NAN,7.50000
23790,0x000E,1,FALSE,1187.62,4.53378,0.18930,3.69160,NAN,NAN,7.60000
23840,0x000E,1,FALSE,1190.17,4.54318,0.18930,3.69100,NAN,NAN,7.70000
23890,0x000E,1,FALSE,1192.61,4.55221,0.18930,3.69040,NAN,NAN,7.80000
23940,0x000E,1,FALSE,1195.16,4.56161,0.18930,3.68980,NAN,NAN,7.90000
23990,0x000E,1,FALSE,1197.6,4.57063,0.18930,3.68920,NAN,NAN,8.00000
24040,0x000E,1,FALSE,1200.15,4.58002,0.18930,3.68860,NAN,NAN,8.00000
24090,0x000E,1,FALSE,1202.6,4.58905,0.18920,3.68790,NAN,NAN,7.50000
24140,0x000E,1,FALSE,1205.09,4.59826,0.18930,3.68690,NAN,NAN,7.10000
24190,0x000E,1,FALSE,1207.64,4.60764,0.18920,3.68600,NAN,NAN,7.40000
24240,0x000E,1,FALSE,1210.09,4.61666,0.18920,3.68510,NAN,NAN,7.50000
24290,0x000E,1,FALSE,1212.63,4.62604,0.18920,3.68430,NAN,NAN,7.60000
24340,0x000E,1,FALSE,1215.08,4.63506,0.18930,3.68340,NAN,NAN,7.60000
24390,0x000E,1,FALSE,1217.63,4.64444,0.18930,3.68250,NAN,NAN,7.50000
24440,0x000E,1,FALSE,1220.08,4.65345,0.18930,3.68150,NAN,NAN,7.60000
24490,0x000E,1,FALSE,1222.57,4.66263,0.18930,3.68070,NAN,NAN,7.70000
24540,0x000E,1,FALSE,1225.12,4.67200,0.18920,3.67980,NAN,NAN,7.90000
24590,0x000E,1,FALSE,1227.57,4.68101,0.18930,3.67900,NAN,NAN,7.90000
24640,0x000E,1,FALSE,1230.11,4.69038,0.18930,3.67830,NAN,NAN,8.10000
24690,0x000E,1,FALSE,1232.56,4.69938,0.18930,3.67750,NAN,NAN,8.00000
24740,0x000E,1,FALSE,1235.11,4.70874,0.18920,3.67660,NAN,NAN,7.60000
24790,0x000E,1,FALSE,1237.55,4.71773,0.18920,3.67540,NAN,NAN,7.10000
24840,0x000E,1,FALSE,1240.1,4.72709,0.18920,3.67420,NAN,NAN,7.40000
24890,0x000E,1,FALSE,1242.54,4.73607,0.18930,3.67310,NAN,NAN,7.60000
24940,0x000E,1,FALSE,1245.04,4.74524,0.18930,3.67210,NAN,NAN,7.70000
24990,0x000E,1,FALSE,1247.59,4.75459,0.18930,3.67100,NAN,NAN,7.60000
25040,0x000E,1,FALSE,1250.04,4.76357,0.18930,3.66990,NAN,NAN,7.50000
25090,0x000E,1,FALSE,1252.58,4.77292,0.18930,3.66870,NAN,NAN,7.60000
25140,0x000E,1,FALSE,1255.03,4.78189,0.18930,3.66770,NAN,NAN,7.70000
25190,0x000E,1,FALSE,1257.57,4.79122,0.18930,3.66670,NAN,NAN,7.80000
25240,0x000E,1,FALSE,1260.02,4.80018,0.18930,3.66570,NAN,NAN,7.90000
25290,0x000E,1,FALSE,1262.56,4.80951,0.18930,3.66480,NAN,NAN,8.00000
25340,0x000E,1,FALSE,1265.01,4.81848,0.18930,3.66390,NAN,NAN,8.10000
25390,0x000E,1,FALSE,1267.51,4.82762,0.18930,3.66280,NAN,NAN,7.70000
25440,0x000E,1,FALSE,1270.05,4.83694,0.18930,3.66150,NAN,NAN,7.30000
25490,0x000E,1,FALSE,1272.5,4.84590,0.18930,3.66010,NAN,NAN,7.30000
25540,0x000E,1,FALSE,1275.05,4.85522,0.18930,3.65880,NAN,NAN,7.50000
25590,0x000E,1,FALSE,1277.49,4.86417,0.18930,3.65760,NAN,NAN,7.70000
25640,0x000E,1,FALSE,1280.04,4.87348,0.18930,3.65630,NAN,NAN,7.70000
25690,0x000E,1,FALSE,1282.48,4.88242,0.18930,3.65500,NAN,NAN,7.50000
25740,0x000E,1,FALSE,1285.03,4.89172,0.18930,3.65360,NAN,NAN,7.50000
25790,0x000E,1,FALSE,1287.47,4.90065,0.18930,3.65220,NAN,NAN,7.70000
25840,0x000E,1,FALSE,1289.97,4.90976,0.18930,3.65090,NAN,NAN,7.80000
25890,0x000E,1,FALSE,1292.52,4.91906,0.18930,3.64960,NAN,NAN,7.90000
25940,0x000E,1,FALSE,1294.96,4.92799,0.18930,3.64840,NAN,NAN,8.00000
25990,0x000E,1,FALSE,1297.51,4.93728,0.18930,3.64720,NAN,NAN,8.10000
26040,0x000E,1,FALSE,1299.96,4.94620,0.18930,3.64590,NAN,NAN,7.80000
26090,0x000E,1,FALSE,1302.51,4.95549,0.18930,3.64440,NAN,NAN,7.40000
26140,0x000E,1,FALSE,1304.95,4.96440,0.18930,3.64270,NAN,NAN,7.20000
26190,0x000E,1,FALSE,1307.5,4.97367,0.18930,3.64110,NAN,NAN,7.50000
26240,0x000E,1,FALSE,1309.95,4.98258,0.18930,3.63980,NAN,NAN,7.60000
26290,0x000E,1,FALSE,1312.44,4.99166,0.18930,3.63840,NAN,NAN,7.70000
26340,0x000E,1,FALSE,1314.99,5.00093,0.18930,3.63710,NAN,NAN,7.50000
26390,0x000E,1,FALSE,1317.44,5.00983,0.18930,3.63590,NAN,NAN,7.50000
26440,0x000E,1,FALSE,1319.98,5.01909,0.18930,3.63480,NAN,NAN,7.70000
26490,0x000E,1,FALSE,1322.43,5.02798,0.18930,3.63390,NAN,NAN,7.80000
26540,0x000E,1,FALSE,1324.98,5.03723,0.18930,3.63310,NAN,NAN,7.90000
26590,0x000E,1,FALSE,1327.42,5.04611,0.18930,3.63240,NAN,NAN,8.00000
26640,0x000E,1,FALSE,1329.97,5.05537,0.18930,3.63190,NAN,NAN,8.10000
26690,0x000E,1,FALSE,1332.42,5.06425,0.18930,3.63130,NAN,NAN,7.90000
26740,0x000E,1,FALSE,1334.91,5.07331,0.18930,3.63050,NAN,NAN,7.50000
26790,0x000E,1,FALSE,1337.46,5.08256,0.18930,3.62960,NAN,NAN,7.10000
26840,0x000E,1,FALSE,1339.91,5.09143,0.18930,3.62870,NAN,NAN,7.50000
26890,0x000E,1,FALSE,1342.45,5.10067,0.18930,3.62800,NAN,NAN,7.60000
26940,0x000E,1,FALSE,1344.9,5.10954,0.18930,3.62740,NAN,NAN,7.70000
26990,0x000E,1,FALSE,1347.44,5.11877,0.18930,3.62670,NAN,NAN,7.60000
27040,0x000E,1,FALSE,1349.89,5.12764,0.18930,3.62600,NAN,NAN,7.50000
27090,0x000E,1,FALSE,1352.38,5.13669,0.18930,3.62540,NAN,NAN,7.60000
27140,0x000E,1,FALSE,1354.93,5.14592,0.18930,3.62480,NAN,NAN,7.80000
27190,0x000E,1,FALSE,1357.38,5.15479,0.18930,3.62430,NAN,NAN,7.90000
27240,0x000E,1,FALSE,1359.92,5.16402,0.18930,3.62380,NAN,NAN,8.00000
27290,0x000E,1,FALSE,1362.37,5.17288,0.18930,3.62340,NAN,NAN,8.10000
27340,0x000E,1,FALSE,1364.92,5.18211,0.18930,3.62300,NAN,NAN,8.00000
27390,0x000E,1,FALSE,1367.36,5.19097,0.18930,3.62230,NAN,NAN,7.50000
27440,0x000E,1,FALSE,1369.91,5.20019,0.18930,3.62140,NAN,NAN,7.10000
27490,0x000E,1,FALSE,1372.35,5.20904,0.18930,3.62050,NAN,NAN,7.50000
27540,0x000E,1,FALSE,1374.85,5.21808,0.18930,3.61980,NAN,NAN,7.60000
27590,0x000E,1,FALSE,1377.4,5.22729,0.18930,3.61910,NAN,NAN,7.70000
27640,0x000E,1,FALSE,1379.84,5.23615,0.18930,3.61840,NAN,NAN,7.60000
27690,0x000E,1,FALSE,1382.39,5.24536,0.18930,3.61750,NAN,NAN,7.50000
27740,0x000E,1,FALSE,1384.84,5.25421,0.18930,3.61670,NAN,NAN,7.60000
27790,0x000E,1,FALSE,1387.39,5.26343,0.18930,3.61590,NAN,NAN,7.70000
27840,0x000E,1,FALSE,1389.83,5.27228,0.18920,3.61530,NAN,NAN,7.90000
27890,0x000E,1,FALSE,1392.38,5.28148,0.18920,3.61470,NAN,NAN,8.00000
27940,0x000E,1,FALSE,1394.83,5.29033,0.18920,3.61420,NAN,NAN,8.10000
27990,0x000E,1,FALSE,1397.33,5.29935,0.18930,3.61360,NAN,NAN,8.00000
28040,0x000E,1,FALSE,1399.87,5.30856,0.18920,3.61270,NAN,NAN,7.60000
28090,0x000E,1,FALSE,1402.32,5.31739,0.18920,3.61160,NAN,NAN,7.20000
28140,0x000E,1,FALSE,1404.87,5.32659,0.18930,3.61040,NAN,NAN,7.40000
28190,0x000E,1,FALSE,1407.31,5.33542,0.18930,3.60940,NAN,NAN,7.60000
28240,0x000E,1,FALSE,1409.86,5.34460,0.18930,3.60840,NAN,NAN,7.70000
28290,0x000E,1,FALSE,1412.3,5.35342,0.18930,3.60740,NAN,NAN,7.60000
28340,0x000E,1,FALSE,1414.85,5.36261,0.18930,3.60620,NAN,NAN,7.50000
28390,0x000E,1,FALSE,1417.3,5.37143,0.18930,3.60500,NAN,NAN,7.60000
28440,0x000E,1,FALSE,1419.79,5.38042,0.18930,3.60390,NAN,NAN,7.70000
28490,0x000E,1,FALSE,1422.34,5.38959,0.18930,3.60290,NAN,NAN,7.90000
28540,0x000E,1,FALSE,1424.78,5.39840,0.18930,3.60190,NAN,NAN,8.00000
28590,0x000E,1,FALSE,1427.33,5.40757,0.18930,3.60100,NAN,NAN,8.10000
28640,0x000E,1,FALSE,1429.77,5.41637,0.18930,3.60000,NAN,NAN,8.10000
28690,0x000E,1,FALSE,1432.32,5.42553,0.18930,3.59870,NAN,NAN,7.70000
28740,0x000E,1,FALSE,1434.76,5.43433,0.18920,3.59720,NAN,NAN,7.30000
28790,0x000E,1,FALSE,1437.31,5.44348,0.18930,3.59530,NAN,NAN,7.40000
28840,0x000E,1,FALSE,1439.75,5.45227,0.18930,3.59370,NAN,NAN,7.60000
28890,0x000E,1,FALSE,1442.25,5.46123,0.18920,3.59200,NAN,NAN,7.70000
28940,0x000E,1,FALSE,1444.79,5.47038,0.18930,3.59040,NAN,NAN,7.70000
28990,0x000E,1,FALSE,1447.24,5.47916,0.18930,3.58850,NAN,NAN,7.50000
29040,0x000E,1,FALSE,1449.79,5.48829,0.18930,3.58650,NAN,NAN,7.60000
29090,0x000E,1,FALSE,1452.24,5.49707,0.18930,3.58460,NAN,NAN,7.70000
29140,0x000E,1,FALSE,1454.78,5.50620,0.18930,3.58270,NAN,NAN,7.80000
29190,0x000E,1,FALSE,1457.23,5.51497,0.18930,3.58080,NAN,NAN,8.00000
29240,0x000E,1,FALSE,1459.73,5.52391,0.18930,3.57890,NAN,NAN,8.10000
29290,0x000E,1,FALSE,1462.28,5.53302,0.18930,3.57690,NAN,NAN,8.10000
29340,0x000E,1,FALSE,1464.72,5.54177,0.18930,3.57440,NAN,NAN,7.70000
29390,0x000E,1,FALSE,1467.27,5.55088,0.18930,3.57140,NAN,NAN,7.30000
29440,0x000E,1,FALSE,1469.72,5.55961,0.18930,3.56810,NAN,NAN,7.30000
29490,0x000E,1,FALSE,1472.27,5.56870,0.18930,3.56480,NAN,NAN,7.60000
29540,0x000E,1,FALSE,1474.72,5.57742,0.18930,3.56140,NAN,NAN,7.70000
29590,0x000E,1,FALSE,1477.26,5.58649,0.18930,3.55770,NAN,NAN,7.80000
29640,0x000E,1,FALSE,1479.71,5.59520,0.18930,3.55370,NAN,NAN,7.60000
29690,0x000E,1,FALSE,1482.21,5.60407,0.18930,3.54930,NAN,NAN,7.60000
29740,0x000E,1,FALSE,1484.76,5.61311,0.18930,3.54470,NAN,NAN,7.80000
29790,0x000E,1,FALSE,1487.21,5.62178,0.18930,3.53990,NAN,NAN,7.90000
29840,0x000E,1,FALSE,1489.76,5.63079,0.18930,3.53480,NAN,NAN,8.00000
29890,0x000E,1,FALSE,1492.21,5.63944,0.18930,3.52950,NAN,NAN,8.10000
29940,0x000E,1,FALSE,1494.75,5.64843,0.18930,3.52380,NAN,NAN,8.20000
29990,0x000E,1,FALSE,1497.2,5.65705,0.18930,3.51740,NAN,NAN,7.90000
30040,0x000E,1,FALSE,1499.75,5.66601,0.18930,3.50990,NAN,NAN,7.50000
30090,0x000E,1,FALSE,1502.2,5.67459,0.18930,3.50160,NAN,NAN,7.30000
30140,0x000E,1,FALSE,1504.7,5.68333,0.18930,3.49280,NAN,NAN,7.60000
30190,0x000E,1,FALSE,1507.25,5.69222,0.18930,3.48350,NAN,NAN,7.80000
30240,0x000E,1,FALSE,1509.7,5.70073,0.18930,3.47390,NAN,NAN,7.90000
30290,0x000E,1,FALSE,1512.24,5.70957,0.18930,3.46340,NAN,NAN,7.70000
30340,0x000E,1,FALSE,1514.69,5.71804,0.18930,3.45210,NAN,NAN,7.70000
30390,0x000E,1,FALSE,1517.24,5.72681,0.18930,3.44010,NAN,NAN,7.80000
30440,0x000E,1,FALSE,1519.69,5.73522,0.18930,3.42770,NAN,NAN,7.90000
30490,0x000E,1,FALSE,1522.24,5.74394,0.18930,3.41460,NAN,NAN,8.10000
30540,0x000E,1,FALSE,1524.69,5.75228,0.18930,3.40110,NAN,NAN,8.10000
30590,0x000E,1,FALSE,1527.18,5.76076,0.18930,3.38680,NAN,NAN,8.30000
30640,0x000E,1,FALSE,1529.73,5.76937,0.18930,3.37130,NAN,NAN,8.20000
30690,0x000E,1,FALSE,1532.18,5.77760,0.18930,3.35460,NAN,NAN,7.80000
30740,0x000E,1,FALSE,1534.73,5.78613,0.18930,3.33580,NAN,NAN,7.40000
30790,0x000E,1,FALSE,1537.18,5.79427,0.18930,3.31610,NAN,NAN,7.70000
30840,0x000E,1,FALSE,1539.72,5.80269,0.18930,3.29500,NAN,NAN,7.90000
30890,0x000E,1,FALSE,1542.17,5.81073,0.18930,3.27300,NAN,NAN,8.00000
30940,0x000E,1,FALSE,1544.72,5.81904,0.18930,3.24860,NAN,NAN,7.90000
30990,0x000E,1,FALSE,1547.17,5.82696,0.18930,3.22210,NAN,NAN,7.80000
31040,0x000E,1,FALSE,1549.67,5.83497,0.18930,3.19280,NAN,NAN,7.90000
31090,0x000E,1,FALSE,1552.22,5.84307,0.18930,3.16010,NAN,NAN,8.00000
31140,0x000E,1,FALSE,1554.66,5.85076,0.18930,3.12440,NAN,NAN,8.20000
31190,0x000E,1,FALSE,1557.21,5.85867,0.18930,3.08210,NAN,NAN,8.30000
31240,0x000E,1,FALSE,1559.66,5.86616,0.18930,3.03170,NAN,NAN,8.40000
31290,0x000E,1,FALSE,1562.21,5.87380,0.18930,2.96300,NAN,NAN,8.50000
31340,0x000E,1,FALSE,1564.66,5.88095,0.18930,2.87050,NAN,NAN,8.10000
31390,0x000E,1,FALSE,1567.16,4.39440,0.18930,2.74990,NAN,NAN,7.70000

[DISCHARGE RESULT]
LoRange,FALSE
FinishedBy,1(Cut Voltage)
OpenVolt[V],4.05970
OpenCurr[A],0.00010
OpenTemp[°C],7.00000
StartVolt[V],4.05350
StartCurr[A],0.18920
StartTemp[°C],7.00000
CutoffVolt[V],2.74990
CutoffCurr[A],0.18930
CutoffTemp[°C],7.70000
TimeElapsed[s],31390
Power[Wh],4.39440
StartPulseA[V],NAN
CurrPulseA[V],NAN
StartPulseB[V],NAN
CurrPulseB[V],NAN
TempSet[°C],OFF
TempMon[°C],OFF
HumidSet[%],OFF
HumidMon[%],OFF

[LIFE]
CycleNo,2
Action,Discharge
Start,2021/03/05,18:29:52
End,2021/03/06,3:13:05
Capacity[mAh],1149.91

[IMPEDANCE],AfterCharge,AfterRest
Range,0,0
AutoRange,FALSE,FALSE
Resistance[ohm],NAN,NAN
Reactance[ohm],NAN,NAN