File: csvFiles/20210227/temp15.CSV
[TEST CONDITION]
CondName,バッテリ温度特性試験20210227
ModelID,21
Average,0
CheckDut,FALSE
AutoFine,FALSE
DateTime,2021/02/27,21:40:39
Operator,米山まうむ
Notes,運用に向けてバッテリの温度特性を測定する
運用時の消費電流を鑑み，0.1C放電で行う
なおこんなに運用直前にやることではないので，次期プロジェクトの人間はもっと早い段階で行うことをお勧めする
BatteryName,UF103450P
NominalCapacity[mAh],1800.0
NominalVoltage[V],3.70000
Volume[ml],0.10
Weight[g],38.30
SoftOvp[V],4.40000
SoftUvp[V],2.50000
SoftOah[%],110
SoftOtp[°C],60.00000
DeltaT[s],10.00000
DeltaV[V],0.10000
DeltaI[A],0.10000
ImpRange[ohm],0
Frequency[Hz],1000
AutoRange,FALSE
AfterCharge,FALSE
AfterChargeRest,FALSE
AfterDischarge,FALSE
AfterDischargeRest,FALSE
CapacityRate_C[%],OFF
CapacityRate_D[%],OFF
Impedance_C[ohm],OFF
Impedance_D[ohm],OFF
SeqInfoName,

[CHARGE SHEET]
SheetNo,2
Range,HIGH
Mode,CC-CV
ChargeTime[s],0
RestTime[s],0
Current[A],0.00000
CvVolt[V],0.00000
CvTime[s],0
ItCurrent[A],OFF
ItTime[s],OFF

[DISCHARGE SHEET]
SheetNo,2
Range,HIGH
Mode,CC
DischargeTime[s],43200
RestTime[s],0
Current[A],0.18800
CapacityVolt[V],3.70000
CutoffVolt[V],2.75000

[DISCHARGE MONITOR]
TimeElapsed[s],StdState,OpnState,LowRange,Capacity[mAh],Power[Wh],Curr[A],Volt[V],VoltHi[V],VoltLo[V],Temp[°C],TermState,CellVolt[V],CellVoltHi[V],CellVoltLo[V],CellTemp[°C],(continued)
0,0x000E,0,FALSE,0.00000,0.00000,0.00000,4.09260,NAN,NAN,15.30000
40,0x000E,1,FALSE,2.02522,0.00823,0.18930,4.05990,NAN,NAN,15.40000
90,0x000E,1,FALSE,4.67453,0.01898,0.18930,4.05510,NAN,NAN,15.60000
140,0x000E,1,FALSE,7.21989,0.02929,0.18940,4.05230,NAN,NAN,15.60000
190,0x000E,1,FALSE,9.86900,0.04002,0.18930,4.05000,NAN,NAN,15.20000
240,0x000E,1,FALSE,12.41422,0.05033,0.18930,4.04800,NAN,NAN,15.20000
290,0x000E,1,FALSE,15.06336,0.06105,0.18930,4.04620,NAN,NAN,15.30000
340,0x000E,1,FALSE,17.60833,0.07134,0.18930,4.04450,NAN,NAN,15.30000
390,0x000E,1,FALSE,20.20522,0.08184,0.18930,4.04290,NAN,NAN,15.10000
440,0x000E,1,FALSE,22.85461,0.09255,0.18930,4.04120,NAN,NAN,15.00000
490,0x000E,1,FALSE,25.39994,0.10284,0.18930,4.03970,NAN,NAN,15.20000
540,0x000E,1,FALSE,28.04911,0.11354,0.18940,4.03830,NAN,NAN,15.50000
590,0x000E,1,FALSE,30.59447,0.12381,0.18930,4.03690,NAN,NAN,15.60000
640,0x000E,1,FALSE,33.24405,0.13451,0.18930,4.03560,NAN,NAN,15.70000
690,0x000E,1,FALSE,35.78947,0.14478,0.18930,4.03430,NAN,NAN,15.30000
740,0x000E,1,FALSE,38.43928,0.15546,0.18930,4.03290,NAN,NAN,15.20000
790,0x000E,1,FALSE,40.98500,0.16573,0.18930,4.03150,NAN,NAN,15.30000
840,0x000E,1,FALSE,43.58211,0.17620,0.18930,4.03020,NAN,NAN,15.30000
890,0x000E,1,FALSE,46.23167,0.18687,0.18930,4.02880,NAN,NAN,15.20000
940,0x000E,1,FALSE,48.77814,0.19713,0.18930,4.02750,NAN,NAN,15.00000
990,0x000E,1,FALSE,51.42742,0.20780,0.18930,4.02610,NAN,NAN,15.30000
1040,0x000E,1,FALSE,53.97281,0.21804,0.18930,4.02490,NAN,NAN,15.50000
1090,0x000E,1,FALSE,56.62239,0.22870,0.18930,4.02370,NAN,NAN,15.70000
1140,0x000E,1,FALSE,59.16775,0.23894,0.18940,4.02260,NAN,NAN,15.70000
1190,0x000E,1,FALSE,61.81683,0.24960,0.18930,4.02140,NAN,NAN,15.40000
1240,0x000E,1,FALSE,64.36158,0.25983,0.18930,4.02010,NAN,NAN,15.20000
1290,0x000E,1,FALSE,66.95875,0.27027,0.18930,4.01890,NAN,NAN,15.30000
1340,0x000E,1,FALSE,69.60669,0.28091,0.18930,4.01770,NAN,NAN,15.40000
1390,0x000E,1,FALSE,72.15138,0.29113,0.18930,4.01650,NAN,NAN,15.30000
1440,0x000E,1,FALSE,74.80064,0.30177,0.18930,4.01520,NAN,NAN,15.10000
1490,0x000E,1,FALSE,77.34592,0.31198,0.18930,4.01390,NAN,NAN,15.30000
1540,0x000E,1,FALSE,79.99489,0.32261,0.18930,4.01280,NAN,NAN,15.50000
1590,0x000E,1,FALSE,82.54011,0.33282,0.18930,4.01170,NAN,NAN,15.70000
1640,0x000E,1,FALSE,85.13742,0.34324,0.18940,4.01060,NAN,NAN,15.80000
1690,0x000E,1,FALSE,87.78661,0.35386,0.18930,4.00950,NAN,NAN,15.40000
1740,0x000E,1,FALSE,90.33189,0.36407,0.18930,4.00830,NAN,NAN,15.20000
1790,0x000E,1,FALSE,92.98145,0.37469,0.18930,4.00710,NAN,NAN,15.30000
1840,0x000E,1,FALSE,95.52692,0.38488,0.18930,4.00590,NAN,NAN,15.40000
1890,0x000E,1,FALSE,98.17619,0.39549,0.18930,4.00460,NAN,NAN,15.40000
1940,0x000E,1,FALSE,100.721,0.40568,0.18930,4.00340,NAN,NAN,15.10000
1990,0x000E,1,FALSE,103.371,0.41629,0.18930,4.00220,NAN,NAN,15.30000
2040,0x000E,1,FALSE,105.916,0.42647,0.18930,4.00100,NAN,NAN,15.50000
2090,0x000E,1,FALSE,108.513,0.43686,0.18930,4.00000,NAN,NAN,15.70000
2140,0x000E,1,FALSE,111.162,0.44746,0.18930,3.99890,NAN,NAN,15.80000
2190,0x000E,1,FALSE,113.708,0.45763,0.18930,3.99780,NAN,NAN,15.50000
2240,0x000E,1,FALSE,116.357,0.46822,0.18930,3.99660,NAN,NAN,15.30000
2290,0x000E,1,FALSE,118.903,0.47839,0.18930,3.99540,NAN,NAN,15.40000
2340,0x000E,1,FALSE,121.553,0.48898,0.18930,3.99420,NAN,NAN,15.40000
2390,0x000E,1,FALSE,124.099,0.49915,0.18930,3.99310,NAN,NAN,15.40000
2440,0x000E,1,FALSE,126.748,0.50972,0.18930,3.99180,NAN,NAN,15.10000
2490,0x000E,1,FALSE,129.295,0.51989,0.18930,3.99060,NAN,NAN,15.30000
2540,0x000E,1,FALSE,131.893,0.53025,0.18940,3.98940,NAN,NAN,15.50000
2590,0x000E,1,FALSE,134.542,0.54082,0.18930,3.98840,NAN,NAN,15.70000
2640,0x000E,1,FALSE,137.088,0.55097,0.18930,3.98730,NAN,NAN,15.80000
2690,0x000E,1,FALSE,139.737,0.56153,0.18930,3.98630,NAN,NAN,15.50000
2740,0x000E,1,FALSE,142.282,0.57167,0.18940,3.98510,NAN,NAN,15.20000
2790,0x000E,1,FALSE,144.931,0.58223,0.18940,3.98390,NAN,NAN,15.30000
2840,0x000E,1,FALSE,147.477,0.59237,0.18930,3.98270,NAN,NAN,15.40000
2890,0x000E,1,FALSE,150.126,0.60292,0.18930,3.98160,NAN,NAN,15.40000
2940,0x000E,1,FALSE,152.671,0.61305,0.18930,3.98050,NAN,NAN,15.10000
2990,0x000E,1,FALSE,155.268,0.62338,0.18930,3.97920,NAN,NAN,15.20000
3040,0x000E,1,FALSE,157.917,0.63392,0.18940,3.97810,NAN,NAN,15.50000
3090,0x000E,1,FALSE,160.463,0.64405,0.18940,3.97710,NAN,NAN,15.70000
3140,0x000E,1,FALSE,163.113,0.65459,0.18940,3.97610,NAN,NAN,15.80000
3190,0x000E,1,FALSE,165.659,0.66471,0.18930,3.97510,NAN,NAN,15.60000
3240,0x000E,1,FALSE,168.308,0.67523,0.18930,3.97400,NAN,NAN,15.20000
3290,0x000E,1,FALSE,170.853,0.68535,0.18930,3.97290,NAN,NAN,15.30000
3340,0x000E,1,FALSE,173.503,0.69587,0.18940,3.97180,NAN,NAN,15.40000
3390,0x000E,1,FALSE,176.048,0.70598,0.18930,3.97070,NAN,NAN,15.40000
3440,0x000E,1,FALSE,178.645,0.71629,0.18930,3.96950,NAN,NAN,15.10000
3490,0x000E,1,FALSE,181.294,0.72680,0.18930,3.96840,NAN,NAN,15.20000
3540,0x000E,1,FALSE,183.84,0.73690,0.18930,3.96740,NAN,NAN,15.50000
3590,0x000E,1,FALSE,186.489,0.74741,0.18930,3.96630,NAN,NAN,15.60000
3640,0x000E,1,FALSE,189.034,0.75750,0.18930,3.96540,NAN,NAN,15.70000
3690,0x000E,1,FALSE,191.683,0.76800,0.18930,3.96450,NAN,NAN,15.60000
3740,0x000E,1,FALSE,194.227,0.77809,0.18940,3.96340,NAN,NAN,15.20000
3790,0x000E,1,FALSE,196.876,0.78859,0.18940,3.96230,NAN,NAN,15.30000
3840,0x000E,1,FALSE,199.421,0.79867,0.18930,3.96130,NAN,NAN,15.30000
3890,0x000E,1,FALSE,202.018,0.80895,0.18930,3.96020,NAN,NAN,15.30000
3940,0x000E,1,FALSE,204.667,0.81944,0.18930,3.95910,NAN,NAN,15.00000
3990,0x000E,1,FALSE,207.212,0.82952,0.18930,3.95800,NAN,NAN,15.10000
4040,0x000E,1,FALSE,209.862,0.84000,0.18930,3.95700,NAN,NAN,15.40000
4090,0x000E,1,FALSE,212.408,0.85007,0.18930,3.95610,NAN,NAN,15.60000
4140,0x000E,1,FALSE,215.057,0.86055,0.18930,3.95530,NAN,NAN,15.70000
4190,0x000E,1,FALSE,217.602,0.87062,0.18930,3.95430,NAN,NAN,15.60000
4240,0x000E,1,FALSE,220.198,0.88088,0.18930,3.95330,NAN,NAN,15.20000
4290,0x000E,1,FALSE,222.847,0.89135,0.18930,3.95230,NAN,NAN,15.30000
4340,0x000E,1,FALSE,225.392,0.90141,0.18930,3.95130,NAN,NAN,15.30000
4390,0x000E,1,FALSE,228.042,0.91187,0.18930,3.95030,NAN,NAN,15.30000
4440,0x000E,1,FALSE,230.587,0.92193,0.18940,3.94930,NAN,NAN,15.10000
4490,0x000E,1,FALSE,233.237,0.93239,0.18930,3.94820,NAN,NAN,15.10000
4540,0x000E,1,FALSE,235.783,0.94244,0.18930,3.94720,NAN,NAN,15.30000
4590,0x000E,1,FALSE,238.433,0.95290,0.18930,3.94630,NAN,NAN,15.60000
4640,0x000E,1,FALSE,240.978,0.96294,0.18940,3.94550,NAN,NAN,15.70000
4690,0x000E,1,FALSE,243.576,0.97319,0.18930,3.94460,NAN,NAN,15.70000
4740,0x000E,1,FALSE,246.225,0.98364,0.18930,3.94360,NAN,NAN,15.20000
4790,0x000E,1,FALSE,248.77,0.99367,0.18930,3.94260,NAN,NAN,15.20000
4840,0x000E,1,FALSE,251.419,1.00411,0.18930,3.94170,NAN,NAN,15.30000
4890,0x000E,1,FALSE,253.964,1.01414,0.18930,3.94070,NAN,NAN,15.30000
4940,0x000E,1,FALSE,256.612,1.02458,0.18940,3.93970,NAN,NAN,15.10000
4990,0x000E,1,FALSE,259.157,1.03460,0.18930,3.93870,NAN,NAN,15.10000
5040,0x000E,1,FALSE,261.805,1.04503,0.18940,3.93770,NAN,NAN,15.30000
5090,0x000E,1,FALSE,264.35,1.05505,0.18930,3.93680,NAN,NAN,15.50000
5140,0x000E,1,FALSE,266.946,1.06527,0.18930,3.93600,NAN,NAN,15.70000
5190,0x000E,1,FALSE,269.595,1.07569,0.18930,3.93520,NAN,NAN,15.70000
5240,0x000E,1,FALSE,272.139,1.08570,0.18930,3.93420,NAN,NAN,15.30000
5290,0x000E,1,FALSE,274.788,1.09612,0.18930,3.93320,NAN,NAN,15.30000
5340,0x000E,1,FALSE,277.333,1.10613,0.18930,3.93230,NAN,NAN,15.30000
5390,0x000E,1,FALSE,279.982,1.11654,0.18930,3.93140,NAN,NAN,15.40000
5440,0x000E,1,FALSE,282.527,1.12655,0.18930,3.93040,NAN,NAN,15.20000
5490,0x000E,1,FALSE,285.176,1.13695,0.18940,3.92940,NAN,NAN,15.10000
5540,0x000E,1,FALSE,287.721,1.14695,0.18940,3.92840,NAN,NAN,15.30000
5590,0x000E,1,FALSE,290.318,1.15716,0.18930,3.92750,NAN,NAN,15.50000
5640,0x000E,1,FALSE,292.967,1.16756,0.18930,3.92670,NAN,NAN,15.70000
5690,0x000E,1,FALSE,295.512,1.17755,0.18940,3.92590,NAN,NAN,15.70000
5740,0x000E,1,FALSE,298.161,1.18795,0.18940,3.92500,NAN,NAN,15.40000
5790,0x000E,1,FALSE,300.706,1.19793,0.18930,3.92400,NAN,NAN,15.20000
5840,0x000E,1,FALSE,303.356,1.20833,0.18940,3.92310,NAN,NAN,15.30000
5890,0x000E,1,FALSE,305.901,1.21831,0.18940,3.92210,NAN,NAN,15.40000
5940,0x000E,1,FALSE,308.551,1.22870,0.18940,3.92120,NAN,NAN,15.30000
5990,0x000E,1,FALSE,311.096,1.23868,0.18930,3.92020,NAN,NAN,15.10000
6040,0x000E,1,FALSE,313.693,1.24886,0.18930,3.91920,NAN,NAN,15.30000
6090,0x000E,1,FALSE,316.341,1.25924,0.18930,3.91830,NAN,NAN,15.50000
6140,0x000E,1,FALSE,318.886,1.26921,0.18930,3.91750,NAN,NAN,15.70000
6190,0x000E,1,FALSE,321.534,1.27958,0.18930,3.91670,NAN,NAN,15.80000
6240,0x000E,1,FALSE,324.078,1.28954,0.18930,3.91590,NAN,NAN,15.50000
6290,0x000E,1,FALSE,326.727,1.29991,0.18930,3.91490,NAN,NAN,15.20000
6340,0x000E,1,FALSE,329.272,1.30987,0.18930,3.91400,NAN,NAN,15.30000
6390,0x000E,1,FALSE,331.869,1.32004,0.18930,3.91300,NAN,NAN,15.40000
6440,0x000E,1,FALSE,334.518,1.33040,0.18930,3.91210,NAN,NAN,15.40000
6490,0x000E,1,FALSE,337.063,1.34036,0.18930,3.91110,NAN,NAN,15.10000
6540,0x000E,1,FALSE,339.713,1.35072,0.18930,3.91020,NAN,NAN,15.30000
6590,0x000E,1,FALSE,342.258,1.36067,0.18930,3.90920,NAN,NAN,15.50000
6640,0x000E,1,FALSE,344.906,1.37102,0.18930,3.90840,NAN,NAN,15.70000
6690,0x000E,1,FALSE,347.45,1.38096,0.18930,3.90760,NAN,NAN,15.80000
6740,0x000E,1,FALSE,350.098,1.39130,0.18930,3.90680,NAN,NAN,15.50000
6790,0x000E,1,FALSE,352.643,1.40125,0.18930,3.90590,NAN,NAN,15.20000
6840,0x000E,1,FALSE,355.24,1.41139,0.18930,3.90490,NAN,NAN,15.30000
6890,0x000E,1,FALSE,357.889,1.42173,0.18930,3.90400,NAN,NAN,15.40000
6940,0x000E,1,FALSE,360.435,1.43166,0.18930,3.90310,NAN,NAN,15.40000
6990,0x000E,1,FALSE,363.085,1.44201,0.18940,3.90210,NAN,NAN,15.10000
7040,0x000E,1,FALSE,365.63,1.45194,0.18930,3.90110,NAN,NAN,15.20000
7090,0x000E,1,FALSE,368.28,1.46227,0.18930,3.90020,NAN,NAN,15.50000
7140,0x000E,1,FALSE,370.825,1.47220,0.18930,3.89940,NAN,NAN,15.70000
7190,0x000E,1,FALSE,373.475,1.48253,0.18930,3.89860,NAN,NAN,15.80000
7240,0x000E,1,FALSE,376.02,1.49245,0.18940,3.89780,NAN,NAN,15.60000
7290,0x000E,1,FALSE,378.618,1.50257,0.18940,3.89690,NAN,NAN,15.30000
7340,0x000E,1,FALSE,381.267,1.51289,0.18940,3.89590,NAN,NAN,15.40000
7390,0x000E,1,FALSE,383.812,1.52281,0.18930,3.89500,NAN,NAN,15.40000
7440,0x000E,1,FALSE,386.462,1.53313,0.18930,3.89410,NAN,NAN,15.40000
7490,0x000E,1,FALSE,389.008,1.54304,0.18940,3.89310,NAN,NAN,15.10000
7540,0x000E,1,FALSE,391.657,1.55335,0.18930,3.89210,NAN,NAN,15.20000
7590,0x000E,1,FALSE,394.203,1.56326,0.18940,3.89120,NAN,NAN,15.50000
7640,0x000E,1,FALSE,396.853,1.57357,0.18930,3.89030,NAN,NAN,15.70000
7690,0x000E,1,FALSE,399.399,1.58347,0.18930,3.88950,NAN,NAN,15.80000
7740,0x000E,1,FALSE,401.996,1.59357,0.18940,3.88870,NAN,NAN,15.60000
7790,0x000E,1,FALSE,404.645,1.60387,0.18940,3.88780,NAN,NAN,15.20000
7840,0x000E,1,FALSE,407.19,1.61376,0.18940,3.88680,NAN,NAN,15.30000
7890,0x000E,1,FALSE,409.839,1.62406,0.18940,3.88590,NAN,NAN,15.40000
7940,0x000E,1,FALSE,412.386,1.63395,0.18940,3.88500,NAN,NAN,15.40000
7990,0x000E,1,FALSE,415.034,1.64424,0.18940,3.88400,NAN,NAN,15.10000
8040,0x000E,1,FALSE,417.58,1.65412,0.18930,3.88300,NAN,NAN,15.20000
8090,0x000E,1,FALSE,420.229,1.66441,0.18940,3.88200,NAN,NAN,15.50000
8140,0x000E,1,FALSE,422.775,1.67429,0.18940,3.88120,NAN,NAN,15.70000
8190,0x000E,1,FALSE,425.373,1.68437,0.18940,3.88030,NAN,NAN,15.80000
8240,0x000E,1,FALSE,428.022,1.69465,0.18930,3.87950,NAN,NAN,15.70000
8290,0x000E,1,FALSE,430.567,1.70452,0.18930,3.87860,NAN,NAN,15.20000
8340,0x000E,1,FALSE,433.216,1.71479,0.18930,3.87760,NAN,NAN,15.40000
8390,0x000E,1,FALSE,435.761,1.72466,0.18930,3.87660,NAN,NAN,15.40000
8440,0x000E,1,FALSE,438.412,1.73493,0.18930,3.87560,NAN,NAN,15.40000
8490,0x000E,1,FALSE,440.959,1.74480,0.18940,3.87450,NAN,NAN,15.10000
8540,0x000E,1,FALSE,443.558,1.75487,0.18930,3.87350,NAN,NAN,15.20000
8590,0x000E,1,FALSE,446.208,1.76513,0.18930,3.87250,NAN,NAN,15.40000
8640,0x000E,1,FALSE,448.754,1.77499,0.18930,3.87160,NAN,NAN,15.60000
8690,0x000E,1,FALSE,451.403,1.78524,0.18930,3.87070,NAN,NAN,15.80000
8740,0x000E,1,FALSE,453.949,1.79510,0.18930,3.86980,NAN,NAN,15.70000
8790,0x000E,1,FALSE,456.598,1.80535,0.18930,3.86880,NAN,NAN,15.20000
8840,0x000E,1,FALSE,459.144,1.81519,0.18930,3.86780,NAN,NAN,15.30000
8890,0x000E,1,FALSE,461.793,1.82544,0.18930,3.86680,NAN,NAN,15.40000
8940,0x000E,1,FALSE,464.338,1.83528,0.18930,3.86570,NAN,NAN,15.40000
8990,0x000E,1,FALSE,466.936,1.84532,0.18930,3.86470,NAN,NAN,15.20000
9040,0x000E,1,FALSE,469.585,1.85555,0.18930,3.86350,NAN,NAN,15.20000
9090,0x000E,1,FALSE,472.131,1.86539,0.18930,3.86240,NAN,NAN,15.40000
9140,0x000E,1,FALSE,474.78,1.87562,0.18940,3.86140,NAN,NAN,15.70000
9190,0x000E,1,FALSE,477.327,1.88545,0.18930,3.86050,NAN,NAN,15.80000
9240,0x000E,1,FALSE,479.976,1.89567,0.18930,3.85950,NAN,NAN,15.70000
9290,0x000E,1,FALSE,482.521,1.90550,0.18930,3.85850,NAN,NAN,15.30000
9340,0x000E,1,FALSE,485.171,1.91572,0.18930,3.85740,NAN,NAN,15.40000
9390,0x000E,1,FALSE,487.717,1.92553,0.18940,3.85630,NAN,NAN,15.40000
9440,0x000E,1,FALSE,490.314,1.93555,0.18930,3.85520,NAN,NAN,15.40000
9490,0x000E,1,FALSE,492.964,1.94576,0.18930,3.85400,NAN,NAN,15.20000
9540,0x000E,1,FALSE,495.509,1.95557,0.18930,3.85270,NAN,NAN,15.20000
9590,0x000E,1,FALSE,498.159,1.96578,0.18930,3.85160,NAN,NAN,15.40000
9640,0x000E,1,FALSE,500.705,1.97558,0.18930,3.85050,NAN,NAN,15.60000
9690,0x000E,1,FALSE,503.354,1.98578,0.18930,3.84940,NAN,NAN,15.80000
9740,0x000E,1,FALSE,505.901,1.99558,0.18930,3.84840,NAN,NAN,15.80000
9790,0x000E,1,FALSE,508.55,2.00577,0.18930,3.84720,NAN,NAN,15.30000
9840,0x000E,1,FALSE,511.096,2.01556,0.18930,3.84600,NAN,NAN,15.30000
9890,0x000E,1,FALSE,513.693,2.02555,0.18940,3.84480,NAN,NAN,15.40000
9940,0x000E,1,FALSE,516.343,2.03574,0.18940,3.84360,NAN,NAN,15.40000
9990,0x000E,1,FALSE,518.889,2.04552,0.18940,3.84240,NAN,NAN,15.30000
10040,0x000E,1,FALSE,521.538,2.05570,0.18930,3.84110,NAN,NAN,15.20000
10090,0x000E,1,FALSE,524.084,2.06547,0.18930,3.83980,NAN,NAN,15.40000
10140,0x000E,1,FALSE,526.733,2.07564,0.18930,3.83860,NAN,NAN,15.60000
10190,0x000E,1,FALSE,529.279,2.08541,0.18930,3.83750,NAN,NAN,15.80000
10240,0x000E,1,FALSE,531.929,2.09558,0.18930,3.83640,NAN,NAN,15.80000
10290,0x000E,1,FALSE,534.475,2.10535,0.18930,3.83520,NAN,NAN,15.40000
10340,0x000E,1,FALSE,537.074,2.11531,0.18930,3.83400,NAN,NAN,15.40000
10390,0x000E,1,FALSE,539.724,2.12547,0.18930,3.83270,NAN,NAN,15.40000
10440,0x000E,1,FALSE,542.271,2.13523,0.18940,3.83150,NAN,NAN,15.50000
10490,0x000E,1,FALSE,544.921,2.14538,0.18930,3.83030,NAN,NAN,15.30000
10540,0x000E,1,FALSE,547.468,2.15513,0.18930,3.82890,NAN,NAN,15.10000
10590,0x000E,1,FALSE,550.119,2.16528,0.18930,3.82770,NAN,NAN,15.40000
10640,0x000E,1,FALSE,552.666,2.17503,0.18930,3.82660,NAN,NAN,15.60000
10690,0x000E,1,FALSE,555.265,2.18497,0.18930,3.82550,NAN,NAN,15.80000
10740,0x000E,1,FALSE,557.916,2.19511,0.18940,3.82440,NAN,NAN,15.80000
10790,0x000E,1,FALSE,560.463,2.20485,0.18930,3.82330,NAN,NAN,15.40000
10840,0x000E,1,FALSE,563.113,2.21498,0.18940,3.82210,NAN,NAN,15.30000
10890,0x000E,1,FALSE,565.661,2.22471,0.18940,3.82090,NAN,NAN,15.40000
10940,0x000E,1,FALSE,568.311,2.23484,0.18940,3.81980,NAN,NAN,15.40000
10990,0x000E,1,FALSE,570.858,2.24457,0.18940,3.81870,NAN,NAN,15.30000
11040,0x000E,1,FALSE,573.509,2.25469,0.18940,3.81750,NAN,NAN,15.10000
11090,0x000E,1,FALSE,576.054,2.26440,0.18940,3.81640,NAN,NAN,15.30000
11140,0x000E,1,FALSE,578.652,2.27431,0.18940,3.81540,NAN,NAN,15.60000
11190,0x000E,1,FALSE,581.301,2.28442,0.18940,3.81450,NAN,NAN,15.70000
11240,0x000E,1,FALSE,583.847,2.29413,0.18940,3.81360,NAN,NAN,15.80000
11290,0x000E,1,FALSE,586.497,2.30423,0.18930,3.81270,NAN,NAN,15.40000
11340,0x000E,1,FALSE,589.044,2.31394,0.18940,3.81170,NAN,NAN,15.30000
11390,0x000E,1,FALSE,591.696,2.32405,0.18930,3.81080,NAN,NAN,15.40000
11440,0x000E,1,FALSE,594.243,2.33375,0.18940,3.80980,NAN,NAN,15.40000
11490,0x000E,1,FALSE,596.893,2.34385,0.18940,3.80890,NAN,NAN,15.30000
11540,0x000E,1,FALSE,599.44,2.35355,0.18940,3.80790,NAN,NAN,15.10000
11590,0x000E,1,FALSE,602.04,2.36344,0.18930,3.80700,NAN,NAN,15.30000
11640,0x000E,1,FALSE,604.691,2.37354,0.18940,3.80620,NAN,NAN,15.50000
11690,0x000E,1,FALSE,607.238,2.38323,0.18930,3.80540,NAN,NAN,15.70000
11740,0x000E,1,FALSE,609.89,2.39332,0.18930,3.80480,NAN,NAN,15.80000
11790,0x000E,1,FALSE,612.438,2.40301,0.18930,3.80400,NAN,NAN,15.50000
11840,0x000E,1,FALSE,615.087,2.41309,0.18930,3.80320,NAN,NAN,15.20000
11890,0x000E,1,FALSE,617.633,2.42277,0.18930,3.80240,NAN,NAN,15.30000
11940,0x000E,1,FALSE,620.283,2.43284,0.18930,3.80160,NAN,NAN,15.40000
11990,0x000E,1,FALSE,622.828,2.44252,0.18930,3.80090,NAN,NAN,15.40000
12040,0x000E,1,FALSE,625.426,2.45239,0.18930,3.80010,NAN,NAN,15.10000
12090,0x000E,1,FALSE,628.077,2.46246,0.18930,3.79930,NAN,NAN,15.20000
12140,0x000E,1,FALSE,630.624,2.47214,0.18930,3.79860,NAN,NAN,15.50000
12190,0x000E,1,FALSE,633.274,2.48220,0.18930,3.79800,NAN,NAN,15.70000
12240,0x000E,1,FALSE,635.821,2.49187,0.18940,3.79740,NAN,NAN,15.80000
12290,0x000E,1,FALSE,638.47,2.50193,0.18930,3.79690,NAN,NAN,15.60000
12340,0x000E,1,FALSE,641.016,2.51160,0.18930,3.79620,NAN,NAN,15.20000
12390,0x000E,1,FALSE,643.665,2.52165,0.18940,3.79550,NAN,NAN,15.30000
12440,0x000E,1,FALSE,646.21,2.53131,0.18930,3.79490,NAN,NAN,15.40000
12490,0x000E,1,FALSE,648.808,2.54117,0.18930,3.79420,NAN,NAN,15.40000
12540,0x000E,1,FALSE,651.46,2.55123,0.18930,3.79350,NAN,NAN,15.10000
12590,0x000E,1,FALSE,654.006,2.56088,0.18930,3.79280,NAN,NAN,15.20000
12640,0x000E,1,FALSE,656.656,2.57093,0.18930,3.79220,NAN,NAN,15.40000
12690,0x000E,1,FALSE,659.201,2.58058,0.18930,3.79160,NAN,NAN,15.60000
12740,0x000E,1,FALSE,661.851,2.59063,0.18930,3.79110,NAN,NAN,15.70000
12790,0x000E,1,FALSE,664.398,2.60028,0.18930,3.79060,NAN,NAN,15.60000
12840,0x000E,1,FALSE,667.048,2.61033,0.18930,3.79000,NAN,NAN,15.20000
12890,0x000E,1,FALSE,669.594,2.61998,0.18940,3.78940,NAN,NAN,15.30000
12940,0x000E,1,FALSE,672.192,2.62982,0.18930,3.78880,NAN,NAN,15.30000
12990,0x000E,1,FALSE,674.842,2.63986,0.18930,3.78820,NAN,NAN,15.40000
13040,0x000E,1,FALSE,677.388,2.64950,0.18930,3.78760,NAN,NAN,15.10000
13090,0x000E,1,FALSE,680.038,2.65954,0.18930,3.78700,NAN,NAN,15.10000
13140,0x000E,1,FALSE,682.583,2.66917,0.18930,3.78640,NAN,NAN,15.40000
13190,0x000E,1,FALSE,685.233,2.67920,0.18930,3.78590,NAN,NAN,15.60000
13240,0x000E,1,FALSE,687.778,2.68884,0.18930,3.78550,NAN,NAN,15.70000
13290,0x000E,1,FALSE,690.376,2.69867,0.18940,3.78500,NAN,NAN,15.70000
13340,0x000E,1,FALSE,693.026,2.70870,0.18930,3.78450,NAN,NAN,15.20000
13390,0x000E,1,FALSE,695.572,2.71833,0.18940,3.78390,NAN,NAN,15.30000
13440,0x000E,1,FALSE,698.222,2.72836,0.18930,3.78330,NAN,NAN,15.30000
13490,0x000E,1,FALSE,700.768,2.73799,0.18940,3.78280,NAN,NAN,15.40000
13540,0x000E,1,FALSE,703.417,2.74801,0.18940,3.78220,NAN,NAN,15.10000
13590,0x000E,1,FALSE,705.962,2.75764,0.18930,3.78160,NAN,NAN,15.10000
13640,0x000E,1,FALSE,708.612,2.76765,0.18930,3.78110,NAN,NAN,15.30000
13690,0x000E,1,FALSE,711.158,2.77728,0.18930,3.78060,NAN,NAN,15.60000
13740,0x000E,1,FALSE,713.756,2.78710,0.18930,3.78020,NAN,NAN,15.70000
13790,0x000E,1,FALSE,716.406,2.79712,0.18930,3.77970,NAN,NAN,15.70000
13840,0x000E,1,FALSE,718.953,2.80674,0.18930,3.77930,NAN,NAN,15.30000
13890,0x000E,1,FALSE,721.603,2.81676,0.18930,3.77880,NAN,NAN,15.20000
13940,0x000E,1,FALSE,724.15,2.82638,0.18930,3.77820,NAN,NAN,15.30000
13990,0x000E,1,FALSE,726.801,2.83639,0.18930,3.77770,NAN,NAN,15.30000
14040,0x000E,1,FALSE,729.347,2.84601,0.18930,3.77720,NAN,NAN,15.20000
14090,0x000E,1,FALSE,731.997,2.85602,0.18930,3.77660,NAN,NAN,15.10000
14140,0x000E,1,FALSE,734.543,2.86564,0.18930,3.77610,NAN,NAN,15.30000
14190,0x000E,1,FALSE,737.142,2.87544,0.18930,3.77560,NAN,NAN,15.50000
14240,0x000E,1,FALSE,739.791,2.88545,0.18940,3.77520,NAN,NAN,15.70000
14290,0x000E,1,FALSE,742.339,2.89506,0.18930,3.77490,NAN,NAN,15.70000
14340,0x000E,1,FALSE,744.99,2.90507,0.18930,3.77440,NAN,NAN,15.40000
14390,0x000E,1,FALSE,747.536,2.91468,0.18930,3.77390,NAN,NAN,15.20000
14440,0x000E,1,FALSE,750.186,2.92468,0.18930,3.77350,NAN,NAN,15.30000
14490,0x000E,1,FALSE,752.734,2.93429,0.18930,3.77300,NAN,NAN,15.30000
14540,0x000E,1,FALSE,755.384,2.94429,0.18940,3.77250,NAN,NAN,15.30000
14590,0x000E,1,FALSE,757.931,2.95389,0.18930,3.77200,NAN,NAN,15.00000
14640,0x000E,1,FALSE,760.529,2.96369,0.18930,3.77140,NAN,NAN,15.30000
14690,0x000E,1,FALSE,763.178,2.97368,0.18930,3.77100,NAN,NAN,15.50000
14740,0x000E,1,FALSE,765.724,2.98328,0.18930,3.77060,NAN,NAN,15.60000
14790,0x000E,1,FALSE,768.374,2.99327,0.18930,3.77030,NAN,NAN,15.70000
14840,0x000E,1,FALSE,770.919,3.00287,0.18940,3.76990,NAN,NAN,15.50000
14890,0x000E,1,FALSE,773.569,3.01286,0.18940,3.76940,NAN,NAN,15.20000
14940,0x000E,1,FALSE,776.115,3.02245,0.18940,3.76890,NAN,NAN,15.30000
14990,0x000E,1,FALSE,778.764,3.03244,0.18940,3.76850,NAN,NAN,15.30000
15040,0x000E,1,FALSE,781.311,3.04203,0.18930,3.76800,NAN,NAN,15.30000
15090,0x000E,1,FALSE,783.91,3.05182,0.18930,3.76750,NAN,NAN,15.00000
15140,0x000E,1,FALSE,786.56,3.06181,0.18930,3.76700,NAN,NAN,15.20000
15190,0x000E,1,FALSE,789.106,3.07140,0.18940,3.76660,NAN,NAN,15.50000
15240,0x000E,1,FALSE,791.757,3.08138,0.18940,3.76620,NAN,NAN,15.60000
15290,0x000E,1,FALSE,794.303,3.09097,0.18940,3.76600,NAN,NAN,15.80000
15340,0x000E,1,FALSE,796.953,3.10095,0.18940,3.76560,NAN,NAN,15.50000
15390,0x000E,1,FALSE,799.5,3.11053,0.18940,3.76520,NAN,NAN,15.20000
15440,0x000E,1,FALSE,802.098,3.12032,0.18940,3.76480,NAN,NAN,15.30000
15490,0x000E,1,FALSE,804.75,3.13030,0.18940,3.76430,NAN,NAN,15.40000
15540,0x000E,1,FALSE,807.297,3.13989,0.18940,3.76390,NAN,NAN,15.40000
15590,0x000E,1,FALSE,809.948,3.14986,0.18940,3.76340,NAN,NAN,15.10000
15640,0x000E,1,FALSE,812.494,3.15944,0.18940,3.76290,NAN,NAN,15.20000
15690,0x000E,1,FALSE,815.144,3.16941,0.18930,3.76250,NAN,NAN,15.50000
15740,0x000E,1,FALSE,817.69,3.17899,0.18940,3.76220,NAN,NAN,15.60000
15790,0x000E,1,FALSE,820.341,3.18896,0.18940,3.76190,NAN,NAN,15.70000
15840,0x000E,1,FALSE,822.888,3.19855,0.18940,3.76160,NAN,NAN,15.60000
15890,0x000E,1,FALSE,825.487,3.20832,0.18930,3.76120,NAN,NAN,15.20000
15940,0x000E,1,FALSE,828.138,3.21829,0.18940,3.76070,NAN,NAN,15.30000
15990,0x000E,1,FALSE,830.684,3.22786,0.18930,3.76030,NAN,NAN,15.40000
16040,0x000E,1,FALSE,833.335,3.23783,0.18930,3.75990,NAN,NAN,15.40000
16090,0x000E,1,FALSE,835.881,3.24740,0.18940,3.75950,NAN,NAN,15.10000
16140,0x000E,1,FALSE,838.532,3.25737,0.18930,3.75900,NAN,NAN,15.10000
16190,0x000E,1,FALSE,841.078,3.26693,0.18930,3.75870,NAN,NAN,15.40000
16240,0x000E,1,FALSE,843.727,3.27689,0.18930,3.75830,NAN,NAN,15.60000
16290,0x000E,1,FALSE,846.274,3.28646,0.18930,3.75810,NAN,NAN,15.70000
16340,0x000E,1,FALSE,848.872,3.29623,0.18930,3.75780,NAN,NAN,15.70000
16390,0x000E,1,FALSE,851.521,3.30618,0.18940,3.75740,NAN,NAN,15.20000
16440,0x000E,1,FALSE,854.067,3.31574,0.18930,3.75700,NAN,NAN,15.30000
16490,0x000E,1,FALSE,856.716,3.32569,0.18930,3.75670,NAN,NAN,15.40000
16540,0x000E,1,FALSE,859.262,3.33526,0.18930,3.75620,NAN,NAN,15.40000
16590,0x000E,1,FALSE,861.912,3.34521,0.18930,3.75580,NAN,NAN,15.10000
16640,0x000E,1,FALSE,864.459,3.35478,0.18930,3.75540,NAN,NAN,15.10000
16690,0x000E,1,FALSE,867.109,3.36473,0.18930,3.75500,NAN,NAN,15.40000
16740,0x000E,1,FALSE,869.656,3.37429,0.18940,3.75470,NAN,NAN,15.60000
16790,0x000E,1,FALSE,872.254,3.38404,0.18930,3.75440,NAN,NAN,15.70000
16840,0x000E,1,FALSE,874.904,3.39399,0.18940,3.75420,NAN,NAN,15.70000
16890,0x000E,1,FALSE,877.449,3.40354,0.18940,3.75390,NAN,NAN,15.30000
16940,0x000E,1,FALSE,880.098,3.41349,0.18940,3.75350,NAN,NAN,15.30000
16990,0x000E,1,FALSE,882.642,3.42304,0.18940,3.75310,NAN,NAN,15.40000
17040,0x000E,1,FALSE,885.292,3.43298,0.18940,3.75280,NAN,NAN,15.40000
17090,0x000E,1,FALSE,887.837,3.44253,0.18930,3.75240,NAN,NAN,15.20000
17140,0x000E,1,FALSE,890.487,3.45247,0.18940,3.75200,NAN,NAN,15.10000
17190,0x000E,1,FALSE,893.034,3.46203,0.18940,3.75170,NAN,NAN,15.30000
17240,0x000E,1,FALSE,895.631,3.47177,0.18940,3.75140,NAN,NAN,15.60000
17290,0x000E,1,FALSE,898.281,3.48171,0.18930,3.75110,NAN,NAN,15.70000
17340,0x000E,1,FALSE,900.827,3.49126,0.18930,3.75090,NAN,NAN,15.80000
17390,0x000E,1,FALSE,903.477,3.50120,0.18940,3.75060,NAN,NAN,15.40000
17440,0x000E,1,FALSE,906.023,3.51075,0.18940,3.75030,NAN,NAN,15.30000
17490,0x000E,1,FALSE,908.673,3.52068,0.18930,3.74990,NAN,NAN,15.40000
17540,0x000E,1,FALSE,911.219,3.53023,0.18930,3.74960,NAN,NAN,15.40000
17590,0x000E,1,FALSE,913.817,3.53997,0.18940,3.74920,NAN,NAN,15.30000
17640,0x000E,1,FALSE,916.467,3.54990,0.18930,3.74880,NAN,NAN,15.10000
17690,0x000E,1,FALSE,919.013,3.55945,0.18940,3.74850,NAN,NAN,15.30000
17740,0x000E,1,FALSE,921.663,3.56938,0.18940,3.74820,NAN,NAN,15.50000
17790,0x000E,1,FALSE,924.21,3.57892,0.18940,3.74800,NAN,NAN,15.70000
17840,0x000E,1,FALSE,926.861,3.58886,0.18930,3.74780,NAN,NAN,15.80000
17890,0x000E,1,FALSE,929.406,3.59840,0.18930,3.74750,NAN,NAN,15.50000
17940,0x000E,1,FALSE,932.055,3.60832,0.18930,3.74720,NAN,NAN,15.30000
17990,0x000E,1,FALSE,934.602,3.61787,0.18940,3.74690,NAN,NAN,15.40000
18040,0x000E,1,FALSE,937.2,3.62760,0.18940,3.74660,NAN,NAN,15.40000
18090,0x000E,1,FALSE,939.85,3.63753,0.18940,3.74630,NAN,NAN,15.40000
18140,0x000E,1,FALSE,942.396,3.64706,0.18940,3.74600,NAN,NAN,15.10000
18190,0x000E,1,FALSE,945.045,3.65699,0.18930,3.74560,NAN,NAN,15.30000
18240,0x000E,1,FALSE,947.591,3.66652,0.18930,3.74530,NAN,NAN,15.50000
18290,0x000E,1,FALSE,950.242,3.67645,0.18940,3.74510,NAN,NAN,15.70000
18340,0x000E,1,FALSE,952.788,3.68599,0.18940,3.74500,NAN,NAN,15.80000
18390,0x000E,1,FALSE,955.439,3.69591,0.18930,3.74480,NAN,NAN,15.60000
18440,0x000E,1,FALSE,957.986,3.70545,0.18930,3.74450,NAN,NAN,15.30000
18490,0x000E,1,FALSE,960.584,3.71517,0.18940,3.74420,NAN,NAN,15.40000
18540,0x000E,1,FALSE,963.233,3.72509,0.18930,3.74390,NAN,NAN,15.40000
18590,0x000E,1,FALSE,965.779,3.73462,0.18940,3.74360,NAN,NAN,15.40000
18640,0x000E,1,FALSE,968.43,3.74454,0.18940,3.74330,NAN,NAN,15.10000
18690,0x000E,1,FALSE,970.975,3.75407,0.18940,3.74300,NAN,NAN,15.20000
18740,0x000E,1,FALSE,973.624,3.76399,0.18940,3.74270,NAN,NAN,15.50000
18790,0x000E,1,FALSE,976.17,3.77352,0.18940,3.74250,NAN,NAN,15.70000
18840,0x000E,1,FALSE,978.82,3.78343,0.18940,3.74240,NAN,NAN,15.80000
18890,0x000E,1,FALSE,981.366,3.79296,0.18940,3.74220,NAN,NAN,15.60000
18940,0x000E,1,FALSE,983.964,3.80268,0.18940,3.74190,NAN,NAN,15.30000
18990,0x000E,1,FALSE,986.613,3.81259,0.18940,3.74170,NAN,NAN,15.40000
19040,0x000E,1,FALSE,989.158,3.82211,0.18940,3.74140,NAN,NAN,15.40000
19090,0x000E,1,FALSE,991.809,3.83203,0.18940,3.74120,NAN,NAN,15.40000
19140,0x000E,1,FALSE,994.355,3.84155,0.18940,3.74090,NAN,NAN,15.10000
19190,0x000E,1,FALSE,997.004,3.85146,0.18940,3.74060,NAN,NAN,15.30000
19240,0x000E,1,FALSE,999.55,3.86098,0.18940,3.74030,NAN,NAN,15.50000
19290,0x000E,1,FALSE,1002.2,3.87090,0.18940,3.74020,NAN,NAN,15.70000
19340,0x000E,1,FALSE,1004.75,3.88042,0.18940,3.74000,NAN,NAN,15.80000
19390,0x000E,1,FALSE,1007.35,3.89014,0.18940,3.73990,NAN,NAN,15.70000
19440,0x000E,1,FALSE,1009.99,3.90004,0.18940,3.73960,NAN,NAN,15.30000
19490,0x000E,1,FALSE,1012.54,3.90956,0.18940,3.73940,NAN,NAN,15.40000
19540,0x000E,1,FALSE,1015.19,3.91947,0.18940,3.73910,NAN,NAN,15.40000
19590,0x000E,1,FALSE,1017.73,3.92898,0.18940,3.73890,NAN,NAN,15.50000
19640,0x000E,1,FALSE,1020.38,3.93889,0.18940,3.73870,NAN,NAN,15.20000
19690,0x000E,1,FALSE,1022.93,3.94840,0.18940,3.73840,NAN,NAN,15.20000
19740,0x000E,1,FALSE,1025.53,3.95811,0.18930,3.73820,NAN,NAN,15.50000
19790,0x000E,1,FALSE,1028.18,3.96801,0.18930,3.73800,NAN,NAN,15.70000
19840,0x000E,1,FALSE,1030.72,3.97752,0.18930,3.73780,NAN,NAN,15.80000
19890,0x000E,1,FALSE,1033.37,3.98742,0.18940,3.73770,NAN,NAN,15.70000
19940,0x000E,1,FALSE,1035.91,3.99693,0.18940,3.73750,NAN,NAN,15.30000
19990,0x000E,1,FALSE,1038.56,4.00684,0.18930,3.73730,NAN,NAN,15.40000
20040,0x000E,1,FALSE,1041.11,4.01635,0.18930,3.73710,NAN,NAN,15.40000
20090,0x000E,1,FALSE,1043.76,4.02625,0.18930,3.73680,NAN,NAN,15.50000
20140,0x000E,1,FALSE,1046.3,4.03576,0.18930,3.73660,NAN,NAN,15.20000
20190,0x000E,1,FALSE,1048.9,4.04546,0.18930,3.73630,NAN,NAN,15.20000
20240,0x000E,1,FALSE,1051.55,4.05536,0.18940,3.73610,NAN,NAN,15.50000
20290,0x000E,1,FALSE,1054.1,4.06487,0.18930,3.73600,NAN,NAN,15.70000
20340,0x000E,1,FALSE,1056.75,4.07477,0.18940,3.73580,NAN,NAN,15.80000
20390,0x000E,1,FALSE,1059.29,4.08428,0.18930,3.73570,NAN,NAN,15.80000
20440,0x000E,1,FALSE,1061.94,4.09418,0.18940,3.73550,NAN,NAN,15.30000
20490,0x000E,1,FALSE,1064.49,4.10369,0.18930,3.73530,NAN,NAN,15.40000
20540,0x000E,1,FALSE,1067.14,4.11359,0.18930,3.73510,NAN,NAN,15.50000
20590,0x000E,1,FALSE,1069.68,4.12309,0.18940,3.73490,NAN,NAN,15.50000
20640,0x000E,1,FALSE,1072.28,4.13279,0.18930,3.73460,NAN,NAN,15.30000
20690,0x000E,1,FALSE,1074.93,4.14268,0.18930,3.73440,NAN,NAN,15.20000
20740,0x000E,1,FALSE,1077.48,4.15219,0.18930,3.73410,NAN,NAN,15.40000
20790,0x000E,1,FALSE,1080.12,4.16208,0.18940,3.73390,NAN,NAN,15.70000
20840,0x000E,1,FALSE,1082.67,4.17158,0.18930,3.73380,NAN,NAN,15.80000
20890,0x000E,1,FALSE,1085.32,4.18147,0.18930,3.73360,NAN,NAN,15.80000
20940,0x000E,1,FALSE,1087.86,4.19097,0.18930,3.73350,NAN,NAN,15.40000
20990,0x000E,1,FALSE,1090.51,4.20086,0.18930,3.73320,NAN,NAN,15.40000
21040,0x000E,1,FALSE,1093.06,4.21036,0.18930,3.73300,NAN,NAN,15.50000
21090,0x000E,1,FALSE,1095.65,4.22005,0.18930,3.73280,NAN,NAN,15.50000
21140,0x000E,1,FALSE,1098.3,4.22994,0.18930,3.73250,NAN,NAN,15.40000
21190,0x000E,1,FALSE,1100.85,4.23945,0.18930,3.73230,NAN,NAN,15.20000
21240,0x000E,1,FALSE,1103.5,4.24933,0.18940,3.73200,NAN,NAN,15.40000
21290,0x000E,1,FALSE,1106.04,4.25883,0.18940,3.73180,NAN,NAN,15.70000
21340,0x000E,1,FALSE,1108.69,4.26872,0.18940,3.73160,NAN,NAN,15.80000
21390,0x000E,1,FALSE,1111.24,4.27822,0.18940,3.73150,NAN,NAN,15.90000
21440,0x000E,1,FALSE,1113.89,4.28810,0.18940,3.73140,NAN,NAN,15.50000
21490,0x000E,1,FALSE,1116.43,4.29760,0.18930,3.73110,NAN,NAN,15.40000
21540,0x000E,1,FALSE,1119.03,4.30729,0.18940,3.73080,NAN,NAN,15.50000
21590,0x000E,1,FALSE,1121.68,4.31717,0.18940,3.73060,NAN,NAN,15.50000
21640,0x000E,1,FALSE,1124.23,4.32666,0.18940,3.73040,NAN,NAN,15.50000
21690,0x000E,1,FALSE,1126.87,4.33654,0.18940,3.73000,NAN,NAN,15.20000
21740,0x000E,1,FALSE,1129.42,4.34603,0.18940,3.72980,NAN,NAN,15.40000
21790,0x000E,1,FALSE,1132.07,4.35591,0.18940,3.72950,NAN,NAN,15.70000
21840,0x000E,1,FALSE,1134.61,4.36541,0.18940,3.72930,NAN,NAN,15.80000
21890,0x000E,1,FALSE,1137.26,4.37529,0.18940,3.72920,NAN,NAN,15.90000
21940,0x000E,1,FALSE,1139.81,4.38478,0.18940,3.72890,NAN,NAN,15.60000
21990,0x000E,1,FALSE,1142.41,4.39446,0.18940,3.72870,NAN,NAN,15.40000
22040,0x000E,1,FALSE,1145.06,4.40434,0.18940,3.72840,NAN,NAN,15.50000
22090,0x000E,1,FALSE,1147.6,4.41383,0.18940,3.72810,NAN,NAN,15.60000
22140,0x000E,1,FALSE,1150.25,4.42371,0.18940,3.72780,NAN,NAN,15.50000
22190,0x000E,1,FALSE,1152.8,4.43319,0.18930,3.72750,NAN,NAN,15.20000
22240,0x000E,1,FALSE,1155.44,4.44306,0.18930,3.72720,NAN,NAN,15.40000
22290,0x000E,1,FALSE,1157.99,4.45255,0.18940,3.72690,NAN,NAN,15.70000
22340,0x000E,1,FALSE,1160.59,4.46222,0.18930,3.72660,NAN,NAN,15.90000
22390,0x000E,1,FALSE,1163.23,4.47210,0.18930,3.72640,NAN,NAN,15.90000
22440,0x000E,1,FALSE,1165.78,4.48158,0.18940,3.72610,NAN,NAN,15.60000
22490,0x000E,1,FALSE,1168.43,4.49145,0.18930,3.72580,NAN,NAN,15.40000
22540,0x000E,1,FALSE,1170.97,4.50093,0.18940,3.72550,NAN,NAN,15.60000
22590,0x000E,1,FALSE,1173.62,4.51080,0.18930,3.72520,NAN,NAN,15.60000
22640,0x000E,1,FALSE,1176.17,4.52028,0.18940,3.72480,NAN,NAN,15.60000
22690,0x000E,1,FALSE,1178.82,4.53014,0.18930,3.72440,NAN,NAN,15.30000
22740,0x000E,1,FALSE,1181.36,4.53961,0.18930,3.72400,NAN,NAN,15.40000
22790,0x000E,1,FALSE,1183.96,4.54928,0.18940,3.72370,NAN,NAN,15.70000
22840,0x000E,1,FALSE,1186.6,4.55914,0.18930,3.72340,NAN,NAN,15.90000
22890,0x000E,1,FALSE,1189.15,4.56862,0.18930,3.72310,NAN,NAN,15.90000
22940,0x000E,1,FALSE,1191.8,4.57848,0.18930,3.72270,NAN,NAN,15.70000
22990,0x000E,1,FALSE,1194.34,4.58795,0.18930,3.72230,NAN,NAN,15.40000
23040,0x000E,1,FALSE,1196.99,4.59781,0.18940,3.72190,NAN,NAN,15.50000
23090,0x000E,1,FALSE,1199.54,4.60728,0.18940,3.72150,NAN,NAN,15.60000
23140,0x000E,1,FALSE,1202.19,4.61714,0.18940,3.72110,NAN,NAN,15.60000
23190,0x000E,1,FALSE,1204.73,4.62661,0.18940,3.72060,NAN,NAN,15.30000
23240,0x000E,1,FALSE,1207.33,4.63627,0.18940,3.72020,NAN,NAN,15.40000
23290,0x000E,1,FALSE,1209.98,4.64613,0.18940,3.71970,NAN,NAN,15.70000
23340,0x000E,1,FALSE,1212.53,4.65560,0.18940,3.71930,NAN,NAN,15.90000
23390,0x000E,1,FALSE,1215.18,4.66545,0.18940,3.71900,NAN,NAN,16.00000
23440,0x000E,1,FALSE,1217.72,4.67491,0.18940,3.71850,NAN,NAN,15.80000
23490,0x000E,1,FALSE,1220.37,4.68476,0.18940,3.71800,NAN,NAN,15.50000
23540,0x000E,1,FALSE,1222.91,4.69423,0.18940,3.71750,NAN,NAN,15.60000
23590,0x000E,1,FALSE,1225.56,4.70407,0.18940,3.71710,NAN,NAN,15.70000
23640,0x000E,1,FALSE,1228.11,4.71353,0.18940,3.71660,NAN,NAN,15.70000
23690,0x000E,1,FALSE,1230.71,4.72319,0.18930,3.71600,NAN,NAN,15.30000
23740,0x000E,1,FALSE,1233.36,4.73303,0.18930,3.71540,NAN,NAN,15.50000
23790,0x000E,1,FALSE,1235.9,4.74249,0.18930,3.71490,NAN,NAN,15.70000
23840,0x000E,1,FALSE,1238.55,4.75233,0.18930,3.71440,NAN,NAN,15.90000
23890,0x000E,1,FALSE,1241.1,4.76178,0.18940,3.71390,NAN,NAN,16.00000
23940,0x000E,1,FALSE,1243.75,4.77162,0.18930,3.71340,NAN,NAN,15.80000
23990,0x000E,1,FALSE,1246.29,4.78107,0.18930,3.71280,NAN,NAN,15.50000
24040,0x000E,1,FALSE,1248.94,4.79091,0.18930,3.71230,NAN,NAN,15.60000
24090,0x000E,1,FALSE,1251.49,4.80036,0.18930,3.71170,NAN,NAN,15.70000
24140,0x000E,1,FALSE,1254.08,4.81000,0.18940,3.71110,NAN,NAN,15.70000
24190,0x000E,1,FALSE,1256.73,4.81983,0.18940,3.71050,NAN,NAN,15.40000
24240,0x000E,1,FALSE,1259.28,4.82927,0.18930,3.70980,NAN,NAN,15.40000
24290,0x000E,1,FALSE,1261.93,4.83910,0.18940,3.70920,NAN,NAN,15.70000
24340,0x000E,1,FALSE,1264.48,4.84854,0.18930,3.70860,NAN,NAN,15.90000
24390,0x000E,1,FALSE,1267.13,4.85837,0.18940,3.70810,NAN,NAN,16.00000
24440,0x000E,1,FALSE,1269.67,4.86780,0.18930,3.70760,NAN,NAN,15.90000
24490,0x000E,1,FALSE,1272.27,4.87743,0.18930,3.70690,NAN,NAN,15.50000
24540,0x000E,1,FALSE,1274.92,4.88725,0.18940,3.70620,NAN,NAN,15.60000
24590,0x000E,1,FALSE,1277.46,4.89669,0.18940,3.70560,NAN,NAN,15.70000
24640,0x000E,1,FALSE,1280.11,4.90650,0.18940,3.70490,NAN,NAN,15.70000
24690,0x000E,1,FALSE,1282.66,4.91593,0.18940,3.70420,NAN,NAN,15.40000
24740,0x000E,1,FALSE,1285.31,4.92574,0.18930,3.70350,NAN,NAN,15.40000
24790,0x000E,1,FALSE,1287.85,4.93516,0.18940,3.70280,NAN,NAN,15.70000
24840,0x000E,1,FALSE,1290.5,4.94497,0.18940,3.70210,NAN,NAN,15.90000
24890,0x000E,1,FALSE,1293.05,4.95439,0.18940,3.70150,NAN,NAN,16.00000
24940,0x000E,1,FALSE,1295.64,4.96400,0.18940,3.70080,NAN,NAN,15.90000
24990,0x000E,1,FALSE,1298.29,4.97380,0.18940,3.70000,NAN,NAN,15.50000
25040,0x000E,1,FALSE,1300.84,4.98322,0.18940,3.69920,NAN,NAN,15.60000
25090,0x000E,1,FALSE,1303.48,4.99301,0.18940,3.69840,NAN,NAN,15.70000
25140,0x000E,1,FALSE,1306.03,5.00242,0.18940,3.69760,NAN,NAN,15.70000
25190,0x000E,1,FALSE,1308.68,5.01222,0.18940,3.69670,NAN,NAN,15.40000
25240,0x000E,1,FALSE,1311.22,5.02162,0.18940,3.69580,NAN,NAN,15.40000
25290,0x000E,1,FALSE,1313.87,5.03141,0.18930,3.69480,NAN,NAN,15.70000
25340,0x000E,1,FALSE,1316.42,5.04081,0.18940,3.69390,NAN,NAN,15.90000
25390,0x000E,1,FALSE,1319.01,5.05040,0.18930,3.69300,NAN,NAN,16.00000
25440,0x000E,1,FALSE,1321.66,5.06019,0.18930,3.69210,NAN,NAN,16.00000
25490,0x000E,1,FALSE,1324.21,5.06958,0.18930,3.69110,NAN,NAN,15.50000
25540,0x000E,1,FALSE,1326.86,5.07936,0.18930,3.69000,NAN,NAN,15.70000
25590,0x000E,1,FALSE,1329.4,5.08874,0.18930,3.68890,NAN,NAN,15.70000
25640,0x000E,1,FALSE,1332.05,5.09852,0.18930,3.68780,NAN,NAN,15.70000
25690,0x000E,1,FALSE,1334.6,5.10790,0.18930,3.68670,NAN,NAN,15.50000
25740,0x000E,1,FALSE,1337.25,5.11767,0.18930,3.68540,NAN,NAN,15.40000
25790,0x000E,1,FALSE,1339.79,5.12705,0.18940,3.68430,NAN,NAN,15.70000
25840,0x000E,1,FALSE,1342.39,5.13662,0.18930,3.68310,NAN,NAN,15.90000
25890,0x000E,1,FALSE,1345.04,5.14637,0.18940,3.68200,NAN,NAN,16.00000
25940,0x000E,1,FALSE,1347.59,5.15574,0.18940,3.68080,NAN,NAN,16.00000
25990,0x000E,1,FALSE,1350.24,5.16549,0.18940,3.67970,NAN,NAN,15.50000
26040,0x000E,1,FALSE,1352.78,5.17486,0.18930,3.67850,NAN,NAN,15.60000
26090,0x000E,1,FALSE,1355.43,5.18460,0.18930,3.67740,NAN,NAN,15.70000
26140,0x000E,1,FALSE,1357.97,5.19396,0.18940,3.67620,NAN,NAN,15.70000
26190,0x000E,1,FALSE,1360.62,5.20369,0.18940,3.67500,NAN,NAN,15.50000
26240,0x000E,1,FALSE,1363.17,5.21304,0.18930,3.67380,NAN,NAN,15.40000
26290,0x000E,1,FALSE,1365.77,5.22258,0.18930,3.67260,NAN,NAN,15.70000
26340,0x000E,1,FALSE,1368.42,5.23231,0.18930,3.67140,NAN,NAN,15.90000
26390,0x000E,1,FALSE,1370.96,5.24165,0.18930,3.67020,NAN,NAN,16.00000
26440,0x000E,1,FALSE,1373.61,5.25138,0.18930,3.66900,NAN,NAN,16.00000
26490,0x000E,1,FALSE,1376.16,5.26071,0.18940,3.66770,NAN,NAN,15.60000
26540,0x000E,1,FALSE,1378.8,5.27042,0.18940,3.66630,NAN,NAN,15.60000
26590,0x000E,1,FALSE,1381.35,5.27975,0.18930,3.66480,NAN,NAN,15.70000
26640,0x000E,1,FALSE,1383.95,5.28926,0.18940,3.66330,NAN,NAN,15.70000
26690,0x000E,1,FALSE,1386.6,5.29897,0.18940,3.66170,NAN,NAN,15.50000
26740,0x000E,1,FALSE,1389.14,5.30828,0.18930,3.66000,NAN,NAN,15.40000
26790,0x000E,1,FALSE,1391.79,5.31797,0.18930,3.65840,NAN,NAN,15.60000
26840,0x000E,1,FALSE,1394.33,5.32728,0.18930,3.65670,NAN,NAN,15.90000
26890,0x000E,1,FALSE,1396.98,5.33696,0.18930,3.65510,NAN,NAN,16.00000
26940,0x000E,1,FALSE,1399.53,5.34626,0.18940,3.65370,NAN,NAN,16.00000
26990,0x000E,1,FALSE,1402.18,5.35595,0.18940,3.65220,NAN,NAN,15.60000
27040,0x000E,1,FALSE,1404.72,5.36524,0.18930,3.65080,NAN,NAN,15.60000
27090,0x000E,1,FALSE,1407.32,5.37472,0.18930,3.64950,NAN,NAN,15.70000
27140,0x000E,1,FALSE,1409.97,5.38439,0.18930,3.64840,NAN,NAN,15.70000
27190,0x000E,1,FALSE,1412.52,5.39368,0.18930,3.64750,NAN,NAN,15.60000
27240,0x000E,1,FALSE,1415.17,5.40334,0.18930,3.64660,NAN,NAN,15.40000
27290,0x000E,1,FALSE,1417.71,5.41263,0.18940,3.64590,NAN,NAN,15.60000
27340,0x000E,1,FALSE,1420.37,5.42229,0.18940,3.64540,NAN,NAN,15.90000
27390,0x000E,1,FALSE,1422.91,5.43157,0.18930,3.64490,NAN,NAN,16.00000
27440,0x000E,1,FALSE,1425.56,5.44122,0.18940,3.64440,NAN,NAN,16.10000
27490,0x000E,1,FALSE,1428.11,5.45050,0.18930,3.64400,NAN,NAN,15.70000
27540,0x000E,1,FALSE,1430.7,5.45997,0.18930,3.64350,NAN,NAN,15.60000
27590,0x000E,1,FALSE,1433.35,5.46962,0.18940,3.64310,NAN,NAN,15.70000
27640,0x000E,1,FALSE,1435.9,5.47889,0.18930,3.64260,NAN,NAN,15.70000
27690,0x000E,1,FALSE,1438.55,5.48854,0.18930,3.64210,NAN,NAN,15.70000
27740,0x000E,1,FALSE,1441.09,5.49781,0.18930,3.64160,NAN,NAN,15.40000
27790,0x000E,1,FALSE,1443.74,5.50745,0.18930,3.64110,NAN,NAN,15.60000
27840,0x000E,1,FALSE,1446.29,5.51672,0.18930,3.64070,NAN,NAN,15.80000
27890,0x000E,1,FALSE,1448.94,5.52636,0.18930,3.64030,NAN,NAN,16.00000
27940,0x000E,1,FALSE,1451.48,5.53562,0.18930,3.64000,NAN,NAN,16.10000
27990,0x000E,1,FALSE,1454.08,5.54508,0.18930,3.63950,NAN,NAN,15.70000
28040,0x000E,1,FALSE,1456.73,5.55471,0.18930,3.63900,NAN,NAN,15.60000
28090,0x000E,1,FALSE,1459.27,5.56397,0.18930,3.63860,NAN,NAN,15.70000
28140,0x000E,1,FALSE,1461.92,5.57361,0.18930,3.63800,NAN,NAN,15.70000
28190,0x000E,1,FALSE,1464.47,5.58287,0.18930,3.63750,NAN,NAN,15.70000
28240,0x000E,1,FALSE,1467.12,5.59250,0.18930,3.63690,NAN,NAN,15.40000
28290,0x000E,1,FALSE,1469.66,5.60176,0.18940,3.63630,NAN,NAN,15.60000
28340,0x000E,1,FALSE,1472.31,5.61139,0.18930,3.63590,NAN,NAN,15.80000
28390,0x000E,1,FALSE,1474.86,5.62065,0.18930,3.63540,NAN,NAN,16.00000
28440,0x000E,1,FALSE,1477.45,5.63009,0.18930,3.63490,NAN,NAN,16.10000
28490,0x000E,1,FALSE,1480.1,5.63972,0.18940,3.63450,NAN,NAN,15.80000
28540,0x000E,1,FALSE,1482.65,5.64897,0.18930,3.63390,NAN,NAN,15.50000
28590,0x000E,1,FALSE,1485.3,5.65860,0.18930,3.63330,NAN,NAN,15.70000
28640,0x000E,1,FALSE,1487.84,5.66784,0.18930,3.63260,NAN,NAN,15.70000
28690,0x000E,1,FALSE,1490.49,5.67747,0.18930,3.63200,NAN,NAN,15.70000
28740,0x000E,1,FALSE,1493.04,5.68671,0.18940,3.63120,NAN,NAN,15.40000
28790,0x000E,1,FALSE,1495.64,5.69614,0.18930,3.63060,NAN,NAN,15.50000
28840,0x000E,1,FALSE,1498.29,5.70576,0.18930,3.62980,NAN,NAN,15.80000
28890,0x000E,1,FALSE,1500.83,5.71499,0.18930,3.62920,NAN,NAN,15.90000
28940,0x000E,1,FALSE,1503.48,5.72461,0.18930,3.62860,NAN,NAN,16.00000
28990,0x000E,1,FALSE,1506.02,5.73384,0.18930,3.62790,NAN,NAN,15.90000
29040,0x000E,1,FALSE,1508.67,5.74344,0.18940,3.62710,NAN,NAN,15.50000
29090,0x000E,1,FALSE,1511.22,5.75267,0.18930,3.62630,NAN,NAN,15.70000
29140,0x000E,1,FALSE,1513.87,5.76227,0.18930,3.62550,NAN,NAN,15.70000
29190,0x000E,1,FALSE,1516.41,5.77150,0.18930,3.62460,NAN,NAN,15.70000
29240,0x000E,1,FALSE,1519.01,5.78091,0.18930,3.62370,NAN,NAN,15.40000
29290,0x000E,1,FALSE,1521.66,5.79050,0.18930,3.62260,NAN,NAN,15.50000
29340,0x000E,1,FALSE,1524.2,5.79972,0.18930,3.62160,NAN,NAN,15.70000
29390,0x000E,1,FALSE,1526.85,5.80931,0.18940,3.62070,NAN,NAN,15.90000
29440,0x000E,1,FALSE,1529.39,5.81852,0.18940,3.61980,NAN,NAN,16.00000
29490,0x000E,1,FALSE,1532.04,5.82811,0.18930,3.61890,NAN,NAN,15.90000
29540,0x000E,1,FALSE,1534.59,5.83731,0.18930,3.61770,NAN,NAN,15.50000
29590,0x000E,1,FALSE,1537.23,5.84689,0.18930,3.61650,NAN,NAN,15.60000
29640,0x000E,1,FALSE,1539.78,5.85610,0.18930,3.61520,NAN,NAN,15.70000
29690,0x000E,1,FALSE,1542.38,5.86548,0.18940,3.61390,NAN,NAN,15.70000
29740,0x000E,1,FALSE,1545.03,5.87505,0.18930,3.61250,NAN,NAN,15.40000
29790,0x000E,1,FALSE,1547.57,5.88424,0.18930,3.61090,NAN,NAN,15.50000
29840,0x000E,1,FALSE,1550.22,5.89380,0.18930,3.60930,NAN,NAN,15.70000
29890,0x000E,1,FALSE,1552.76,5.90298,0.18940,3.60770,NAN,NAN,15.90000
29940,0x000E,1,FALSE,1555.41,5.91254,0.18930,3.60600,NAN,NAN,16.00000
29990,0x000E,1,FALSE,1557.96,5.92171,0.18930,3.60430,NAN,NAN,16.00000
30040,0x000E,1,FALSE,1560.61,5.93125,0.18930,3.60220,NAN,NAN,15.50000
30090,0x000E,1,FALSE,1563.15,5.94042,0.18930,3.59990,NAN,NAN,15.60000
30140,0x000E,1,FALSE,1565.75,5.94976,0.18930,3.59740,NAN,NAN,15.70000
30190,0x000E,1,FALSE,1568.4,5.95929,0.18940,3.59470,NAN,NAN,15.80000
30240,0x000E,1,FALSE,1570.94,5.96844,0.18940,3.59170,NAN,NAN,15.50000
30290,0x000E,1,FALSE,1573.59,5.97795,0.18930,3.58810,NAN,NAN,15.40000
30340,0x000E,1,FALSE,1576.14,5.98708,0.18940,3.58430,NAN,NAN,15.70000
30390,0x000E,1,FALSE,1578.79,5.99657,0.18940,3.58010,NAN,NAN,15.90000
30440,0x000E,1,FALSE,1581.33,6.00567,0.18940,3.57560,NAN,NAN,16.10000
30490,0x000E,1,FALSE,1583.98,6.01514,0.18940,3.57050,NAN,NAN,16.10000
30540,0x000E,1,FALSE,1586.53,6.02422,0.18940,3.56480,NAN,NAN,15.60000
30590,0x000E,1,FALSE,1589.12,6.03347,0.18930,3.55810,NAN,NAN,15.70000
30640,0x000E,1,FALSE,1591.77,6.04288,0.18930,3.55080,NAN,NAN,15.80000
30690,0x000E,1,FALSE,1594.32,6.05191,0.18930,3.54300,NAN,NAN,15.80000
30740,0x000E,1,FALSE,1596.97,6.06128,0.18930,3.53440,NAN,NAN,15.70000
30790,0x000E,1,FALSE,1599.51,6.07027,0.18940,3.52520,NAN,NAN,15.50000
30840,0x000E,1,FALSE,1602.16,6.07959,0.18930,3.51530,NAN,NAN,15.80000
30890,0x000E,1,FALSE,1604.71,6.08853,0.18930,3.50520,NAN,NAN,16.00000
30940,0x000E,1,FALSE,1607.36,6.09780,0.18930,3.49450,NAN,NAN,16.10000
30990,0x000E,1,FALSE,1609.91,6.10669,0.18940,3.48340,NAN,NAN,16.20000
31040,0x000E,1,FALSE,1612.5,6.11572,0.18940,3.47160,NAN,NAN,15.80000
31090,0x000E,1,FALSE,1615.15,6.12490,0.18930,3.45870,NAN,NAN,15.80000
31140,0x000E,1,FALSE,1617.7,6.13369,0.18930,3.44550,NAN,NAN,15.90000
31190,0x000E,1,FALSE,1620.35,6.14280,0.18930,3.43130,NAN,NAN,15.90000
31240,0x000E,1,FALSE,1622.89,6.15151,0.18930,3.41660,NAN,NAN,15.80000
31290,0x000E,1,FALSE,1625.54,6.16054,0.18930,3.40050,NAN,NAN,15.60000
31340,0x000E,1,FALSE,1628.09,6.16917,0.18930,3.38390,NAN,NAN,15.80000
31390,0x000E,1,FALSE,1630.69,6.17794,0.18930,3.36640,NAN,NAN,16.00000
31440,0x000E,1,FALSE,1633.34,6.18684,0.18930,3.34790,NAN,NAN,16.20000
31490,0x000E,1,FALSE,1635.88,6.19534,0.18930,3.32880,NAN,NAN,16.30000
31540,0x000E,1,FALSE,1638.53,6.20413,0.18930,3.30770,NAN,NAN,15.90000
31590,0x000E,1,FALSE,1641.08,6.21252,0.18930,3.28520,NAN,NAN,15.80000
31640,0x000E,1,FALSE,1643.73,6.22120,0.18930,3.26080,NAN,NAN,16.00000
31690,0x000E,1,FALSE,1646.27,6.22947,0.18930,3.23480,NAN,NAN,16.00000
31740,0x000E,1,FALSE,1648.92,6.23800,0.18940,3.20590,NAN,NAN,16.00000
31790,0x000E,1,FALSE,1651.47,6.24612,0.18940,3.17420,NAN,NAN,15.60000
31840,0x000E,1,FALSE,1654.07,6.25432,0.18930,3.13800,NAN,NAN,15.80000
31890,0x000E,1,FALSE,1656.72,6.26258,0.18940,3.09540,NAN,NAN,16.10000
31940,0x000E,1,FALSE,1659.26,6.27039,0.18930,3.04190,NAN,NAN,16.20000
31990,0x000E,1,FALSE,1661.91,6.27835,0.18930,2.96570,NAN,NAN,16.30000
32040,0x000E,1,FALSE,1664.46,6.28577,0.18930,2.85390,NAN,NAN,16.10000
32071,0x000E,1,FALSE,1666.07,4.96362,0.18930,2.75000,NAN,NAN,15.80000

[DISCHARGE RESULT]
LoRange,FALSE
FinishedBy,1(Cut Voltage)
OpenVolt[V],4.07360
OpenCurr[A],0.00010
OpenTemp[°C],15.30000
StartVolt[V],4.06830
StartCurr[A],0.18940
StartTemp[°C],15.30000
CutoffVolt[V],2.75000
CutoffCurr[A],0.18930
CutoffTemp[°C],15.80000
TimeElapsed[s],32071
Power[Wh],4.96362
StartPulseA[V],NAN
CurrPulseA[V],NAN
StartPulseB[V],NAN
CurrPulseB[V],NAN
TempSet[°C],OFF
TempMon[°C],OFF
HumidSet[%],OFF
HumidMon[%],OFF

[LIFE]
CycleNo,2
Action,Discharge
Start,2021/03/04,0:52:21
End,2021/03/04,9:46:55
Capacity[mAh],1295.54

[IMPEDANCE],AfterCharge,AfterRest
Range,0,0
AutoRange,FALSE,FALSE
Resistance[ohm],NAN,NAN
Reactance[ohm],NAN,NAN