File: csvFiles/20210227/temp30.CSV
[TEST CONDITION]
CondName,バッテリ温度特性試験20210227
ModelID,21
Average,0
CheckDut,FALSE
AutoFine,FALSE
DateTime,2021/02/27,21:40:39
Operator,米山まうむ
Notes,運用に向けてバッテリの温度特性を測定する
運用時の消費電流を鑑み，0.1C放電で行う
なおこんなに運用直前にやることではないので，次期プロジェクトの人間はもっと早い段階で行うことをお勧めする
BatteryName,UF103450P
NominalCapacity[mAh],1800.0
NominalVoltage[V],3.70000
Volume[ml],0.10
Weight[g],38.30
SoftOvp[V],4.40000
SoftUvp[V],2.50000
SoftOah[%],110
SoftOtp[°C],60.00000
DeltaT[s],10.00000
DeltaV[V],0.10000
DeltaI[A],0.10000
ImpRange[ohm],0
Frequency[Hz],1000
AutoRange,FALSE
AfterCharge,FALSE
AfterChargeRest,FALSE
AfterDischarge,FALSE
AfterDischargeRest,FALSE
CapacityRate_C[%],OFF
CapacityRate_D[%],OFF
Impedance_C[ohm],OFF
Impedance_D[ohm],OFF
SeqInfoName,

[CHARGE SHEET]
SheetNo,2
Range,HIGH
Mode,CC-CV
ChargeTime[s],0
RestTime[s],0
Current[A],0.00000
CvVolt[V],0.00000
CvTime[s],0
ItCurrent[A],OFF
ItTime[s],OFF

[DISCHARGE SHEET]
SheetNo,2
Range,HIGH
Mode,CC
DischargeTime[s],43200
RestTime[s],0
Current[A],0.18800
CapacityVolt[V],3.70000
CutoffVolt[V],2.75000

[DISCHARGE MONITOR]
TimeElapsed[s],StdState,OpnState,LowRange,Capacity[mAh],Power[Wh],Curr[A],Volt[V],VoltHi[V],VoltLo[V],Temp[°C],TermState,CellVolt[V],CellVoltHi[V],CellVoltLo[V],CellTemp[°C],(continued)
0,0x000E,0,FALSE,0.00000,0.00000,0.00000,4.09960,NAN,NAN,30.20000
40,0x000E,1,FALSE,1.93978,0.00791,0.18930,4.07720,NAN,NAN,30.20000
90,0x000E,1,FALSE,4.48336,0.01828,0.18930,4.07400,NAN,NAN,30.20000
140,0x000E,1,FALSE,6.92747,0.02823,0.18930,4.07200,NAN,NAN,30.20000
190,0x000E,1,FALSE,9.47150,0.03859,0.18930,4.07020,NAN,NAN,30.20000
240,0x000E,1,FALSE,11.91522,0.04853,0.18930,4.06860,NAN,NAN,30.20000
290,0x000E,1,FALSE,14.45919,0.05888,0.18930,4.06710,NAN,NAN,30.20000
340,0x000E,1,FALSE,16.90333,0.06882,0.18930,4.06570,NAN,NAN,30.20000
390,0x000E,1,FALSE,19.39755,0.07896,0.18930,4.06420,NAN,NAN,30.20000
440,0x000E,1,FALSE,21.94203,0.08930,0.18930,4.06290,NAN,NAN,30.20000
490,0x000E,1,FALSE,24.38739,0.09923,0.18930,4.06150,NAN,NAN,30.20000
540,0x000E,1,FALSE,26.93167,0.10956,0.18930,4.06020,NAN,NAN,30.20000
590,0x000E,1,FALSE,29.37642,0.11948,0.18930,4.05890,NAN,NAN,30.20000
640,0x000E,1,FALSE,31.92111,0.12981,0.18930,4.05760,NAN,NAN,30.20000
690,0x000E,1,FALSE,34.36556,0.13973,0.18930,4.05630,NAN,NAN,30.20000
740,0x000E,1,FALSE,36.90997,0.15004,0.18930,4.05500,NAN,NAN,30.20000
790,0x000E,1,FALSE,39.35458,0.15995,0.18930,4.05370,NAN,NAN,30.20000
840,0x000E,1,FALSE,41.84903,0.17006,0.18930,4.05240,NAN,NAN,30.20000
890,0x000E,1,FALSE,44.39347,0.18037,0.18940,4.05120,NAN,NAN,30.20000
940,0x000E,1,FALSE,46.83792,0.19027,0.18930,4.05000,NAN,NAN,30.20000
990,0x000E,1,FALSE,49.38336,0.20058,0.18930,4.04870,NAN,NAN,30.20000
1040,0x000E,1,FALSE,51.82919,0.21048,0.18930,4.04750,NAN,NAN,30.20000
1090,0x000E,1,FALSE,54.37397,0.22078,0.18930,4.04620,NAN,NAN,30.20000
1140,0x000E,1,FALSE,56.81842,0.23067,0.18930,4.04500,NAN,NAN,30.20000
1190,0x000E,1,FALSE,59.36317,0.24096,0.18930,4.04380,NAN,NAN,30.20000
1240,0x000E,1,FALSE,61.80753,0.25084,0.18930,4.04260,NAN,NAN,30.20000
1290,0x000E,1,FALSE,64.30189,0.26092,0.18930,4.04140,NAN,NAN,30.20000
1340,0x000E,1,FALSE,66.84598,0.27120,0.18930,4.04020,NAN,NAN,30.20000
1390,0x000E,1,FALSE,69.29047,0.28108,0.18940,4.03900,NAN,NAN,30.20000
1440,0x000E,1,FALSE,71.83492,0.29135,0.18930,4.03780,NAN,NAN,30.20000
1490,0x000E,1,FALSE,74.28020,0.30122,0.18930,4.03670,NAN,NAN,30.20000
1540,0x000E,1,FALSE,76.82530,0.31149,0.18930,4.03540,NAN,NAN,30.20000
1590,0x000E,1,FALSE,79.27106,0.32136,0.18930,4.03430,NAN,NAN,30.20000
1640,0x000E,1,FALSE,81.81602,0.33163,0.18930,4.03320,NAN,NAN,30.20000
1690,0x000E,1,FALSE,84.26177,0.34149,0.18930,4.03200,NAN,NAN,30.20000
1740,0x000E,1,FALSE,86.75687,0.35155,0.18930,4.03080,NAN,NAN,30.20000
1790,0x000E,1,FALSE,89.30145,0.36180,0.18930,4.02970,NAN,NAN,30.20000
1840,0x000E,1,FALSE,91.74614,0.37165,0.18930,4.02850,NAN,NAN,30.20000
1890,0x000E,1,FALSE,94.29058,0.38190,0.18930,4.02740,NAN,NAN,30.20000
1940,0x000E,1,FALSE,96.73578,0.39174,0.18930,4.02620,NAN,NAN,30.20000
1990,0x000E,1,FALSE,99.28030,0.40199,0.18930,4.02510,NAN,NAN,30.20000
2040,0x000E,1,FALSE,101.725,0.41183,0.18930,4.02400,NAN,NAN,30.20000
2090,0x000E,1,FALSE,104.219,0.42186,0.18930,4.02280,NAN,NAN,30.20000
2140,0x000E,1,FALSE,106.764,0.43209,0.18930,4.02170,NAN,NAN,30.20000
2190,0x000E,1,FALSE,109.209,0.44192,0.18930,4.02060,NAN,NAN,30.20000
2240,0x000E,1,FALSE,111.754,0.45215,0.18930,4.01940,NAN,NAN,30.20000
2290,0x000E,1,FALSE,114.199,0.46198,0.18930,4.01830,NAN,NAN,30.20000
2340,0x000E,1,FALSE,116.744,0.47220,0.18930,4.01720,NAN,NAN,30.20000
2390,0x000E,1,FALSE,119.188,0.48202,0.18930,4.01610,NAN,NAN,30.20000
2440,0x000E,1,FALSE,121.733,0.49224,0.18930,4.01500,NAN,NAN,30.20000
2490,0x000E,1,FALSE,124.179,0.50206,0.18930,4.01390,NAN,NAN,30.20000
2540,0x000E,1,FALSE,126.673,0.51207,0.18930,4.01270,NAN,NAN,30.20000
2590,0x000E,1,FALSE,129.218,0.52228,0.18930,4.01160,NAN,NAN,30.20000
2640,0x000E,1,FALSE,131.662,0.53208,0.18930,4.01050,NAN,NAN,30.20000
2690,0x000E,1,FALSE,134.208,0.54229,0.18930,4.00940,NAN,NAN,30.20000
2740,0x000E,1,FALSE,136.653,0.55209,0.18930,4.00840,NAN,NAN,30.20000
2790,0x000E,1,FALSE,139.198,0.56229,0.18930,4.00720,NAN,NAN,30.20000
2840,0x000E,1,FALSE,141.643,0.57208,0.18930,4.00610,NAN,NAN,30.20000
2890,0x000E,1,FALSE,144.188,0.58228,0.18930,4.00500,NAN,NAN,30.20000
2940,0x000E,1,FALSE,146.633,0.59207,0.18930,4.00400,NAN,NAN,30.20000
2990,0x000E,1,FALSE,149.127,0.60205,0.18930,4.00290,NAN,NAN,30.20000
3040,0x000E,1,FALSE,151.671,0.61223,0.18930,4.00180,NAN,NAN,30.20000
3090,0x000E,1,FALSE,154.117,0.62202,0.18930,4.00070,NAN,NAN,30.20000
3140,0x000E,1,FALSE,156.663,0.63220,0.18930,3.99960,NAN,NAN,30.20000
3190,0x000E,1,FALSE,159.109,0.64198,0.18930,3.99860,NAN,NAN,30.20000
3240,0x000E,1,FALSE,161.654,0.65216,0.18930,3.99750,NAN,NAN,30.20000
3290,0x000E,1,FALSE,164.1,0.66193,0.18930,3.99640,NAN,NAN,30.20000
3340,0x000E,1,FALSE,166.645,0.67210,0.18930,3.99530,NAN,NAN,30.20000
3390,0x000E,1,FALSE,169.089,0.68187,0.18930,3.99430,NAN,NAN,30.20000
3440,0x000E,1,FALSE,171.584,0.69183,0.18930,3.99320,NAN,NAN,30.20000
3490,0x000E,1,FALSE,174.129,0.70199,0.18930,3.99220,NAN,NAN,30.20000
3540,0x000E,1,FALSE,176.575,0.71175,0.18930,3.99110,NAN,NAN,30.20000
3590,0x000E,1,FALSE,179.121,0.72191,0.18930,3.99010,NAN,NAN,30.20000
3640,0x000E,1,FALSE,181.567,0.73167,0.18930,3.98900,NAN,NAN,30.20000
3690,0x000E,1,FALSE,184.113,0.74182,0.18930,3.98800,NAN,NAN,30.20000
3740,0x000E,1,FALSE,186.558,0.75157,0.18930,3.98690,NAN,NAN,30.20000
3790,0x000E,1,FALSE,189.105,0.76173,0.18930,3.98590,NAN,NAN,30.20000
3840,0x000E,1,FALSE,191.553,0.77148,0.18930,3.98490,NAN,NAN,30.20000
3890,0x000E,1,FALSE,194.049,0.78143,0.18930,3.98380,NAN,NAN,30.20000
3940,0x000E,1,FALSE,196.596,0.79157,0.18930,3.98280,NAN,NAN,30.20000
3990,0x000E,1,FALSE,199.043,0.80131,0.18930,3.98180,NAN,NAN,30.20000
4040,0x000E,1,FALSE,201.588,0.81145,0.18930,3.98080,NAN,NAN,30.20000
4090,0x000E,1,FALSE,204.035,0.82118,0.18930,3.97980,NAN,NAN,30.20000
4140,0x000E,1,FALSE,206.58,0.83131,0.18930,3.97870,NAN,NAN,30.20000
4190,0x000E,1,FALSE,209.026,0.84104,0.18930,3.97770,NAN,NAN,30.20000
4240,0x000E,1,FALSE,211.523,0.85097,0.18930,3.97670,NAN,NAN,30.20000
4290,0x000E,1,FALSE,214.069,0.86109,0.18930,3.97580,NAN,NAN,30.20000
4340,0x000E,1,FALSE,216.515,0.87082,0.18930,3.97470,NAN,NAN,30.20000
4390,0x000E,1,FALSE,219.062,0.88094,0.18930,3.97380,NAN,NAN,30.20000
4440,0x000E,1,FALSE,221.508,0.89065,0.18930,3.97280,NAN,NAN,30.20000
4490,0x000E,1,FALSE,224.053,0.90076,0.18930,3.97180,NAN,NAN,30.20000
4540,0x000E,1,FALSE,226.499,0.91048,0.18930,3.97080,NAN,NAN,30.20000
4590,0x000E,1,FALSE,229.044,0.92058,0.18930,3.96980,NAN,NAN,30.20000
4640,0x000E,1,FALSE,231.49,0.93029,0.18930,3.96880,NAN,NAN,30.20000
4690,0x000E,1,FALSE,233.988,0.94020,0.18930,3.96790,NAN,NAN,30.20000
4740,0x000E,1,FALSE,236.536,0.95031,0.18930,3.96690,NAN,NAN,30.20000
4790,0x000E,1,FALSE,238.984,0.96002,0.18930,3.96590,NAN,NAN,30.20000
4840,0x000E,1,FALSE,241.531,0.97012,0.18930,3.96490,NAN,NAN,30.20000
4890,0x000E,1,FALSE,243.979,0.97982,0.18930,3.96400,NAN,NAN,30.20000
4940,0x000E,1,FALSE,246.526,0.98992,0.18930,3.96300,NAN,NAN,30.20000
4990,0x000E,1,FALSE,248.972,0.99961,0.18930,3.96200,NAN,NAN,30.20000
5040,0x000E,1,FALSE,251.519,1.00970,0.18930,3.96110,NAN,NAN,30.20000
5090,0x000E,1,FALSE,253.966,1.01939,0.18930,3.96010,NAN,NAN,30.20000
5140,0x000E,1,FALSE,256.463,1.02928,0.18930,3.95920,NAN,NAN,30.20000
5190,0x000E,1,FALSE,259.011,1.03936,0.18930,3.95820,NAN,NAN,30.20000
5240,0x000E,1,FALSE,261.458,1.04904,0.18930,3.95730,NAN,NAN,30.20000
5290,0x000E,1,FALSE,264.005,1.05912,0.18930,3.95630,NAN,NAN,30.20000
5340,0x000E,1,FALSE,266.451,1.06880,0.18930,3.95540,NAN,NAN,30.20000
5390,0x000E,1,FALSE,268.997,1.07887,0.18930,3.95450,NAN,NAN,30.20000
5440,0x000E,1,FALSE,271.444,1.08854,0.18930,3.95350,NAN,NAN,30.20000
5490,0x000E,1,FALSE,273.989,1.09860,0.18930,3.95260,NAN,NAN,30.20000
5540,0x000E,1,FALSE,276.434,1.10826,0.18930,3.95160,NAN,NAN,30.20000
5590,0x000E,1,FALSE,278.929,1.11812,0.18930,3.95070,NAN,NAN,30.20000
5640,0x000E,1,FALSE,281.475,1.12818,0.18930,3.94980,NAN,NAN,30.20000
5690,0x000E,1,FALSE,283.922,1.13784,0.18930,3.94890,NAN,NAN,30.20000
5740,0x000E,1,FALSE,286.466,1.14789,0.18930,3.94790,NAN,NAN,30.20000
5790,0x000E,1,FALSE,288.913,1.15754,0.18930,3.94700,NAN,NAN,30.20000
5840,0x000E,1,FALSE,291.457,1.16758,0.18930,3.94610,NAN,NAN,30.20000
5890,0x000E,1,FALSE,293.902,1.17723,0.18930,3.94520,NAN,NAN,30.20000
5940,0x000E,1,FALSE,296.448,1.18727,0.18930,3.94430,NAN,NAN,30.20000
5990,0x000E,1,FALSE,298.894,1.19692,0.18930,3.94330,NAN,NAN,30.20000
6040,0x000E,1,FALSE,301.39,1.20676,0.18930,3.94240,NAN,NAN,30.20000
6090,0x000E,1,FALSE,303.936,1.21679,0.18930,3.94150,NAN,NAN,30.20000
6140,0x000E,1,FALSE,306.382,1.22643,0.18930,3.94060,NAN,NAN,30.20000
6190,0x000E,1,FALSE,308.927,1.23646,0.18930,3.93970,NAN,NAN,30.20000
6240,0x000E,1,FALSE,311.373,1.24609,0.18930,3.93880,NAN,NAN,30.20000
6290,0x000E,1,FALSE,313.919,1.25612,0.18930,3.93790,NAN,NAN,30.20000
6340,0x000E,1,FALSE,316.365,1.26575,0.18930,3.93700,NAN,NAN,30.20000
6390,0x000E,1,FALSE,318.861,1.27558,0.18930,3.93610,NAN,NAN,30.20000
6440,0x000E,1,FALSE,321.406,1.28559,0.18930,3.93520,NAN,NAN,30.20000
6490,0x000E,1,FALSE,323.852,1.29521,0.18930,3.93430,NAN,NAN,30.20000
6540,0x000E,1,FALSE,326.398,1.30523,0.18930,3.93340,NAN,NAN,30.20000
6590,0x000E,1,FALSE,328.844,1.31485,0.18930,3.93250,NAN,NAN,30.20000
6640,0x000E,1,FALSE,331.389,1.32486,0.18930,3.93170,NAN,NAN,30.20000
6690,0x000E,1,FALSE,333.835,1.33447,0.18930,3.93080,NAN,NAN,30.20000
6740,0x000E,1,FALSE,336.382,1.34448,0.18930,3.92990,NAN,NAN,30.20000
6790,0x000E,1,FALSE,338.829,1.35409,0.18930,3.92900,NAN,NAN,30.20000
6840,0x000E,1,FALSE,341.325,1.36390,0.18930,3.92810,NAN,NAN,30.20000
6890,0x000E,1,FALSE,343.872,1.37390,0.18930,3.92730,NAN,NAN,30.20000
6940,0x000E,1,FALSE,346.319,1.38351,0.18930,3.92640,NAN,NAN,30.20000
6990,0x000E,1,FALSE,348.866,1.39351,0.18930,3.92550,NAN,NAN,30.20000
7040,0x000E,1,FALSE,351.313,1.40311,0.18930,3.92460,NAN,NAN,30.10000
7090,0x000E,1,FALSE,353.859,1.41310,0.18930,3.92370,NAN,NAN,30.10000
7140,0x000E,1,FALSE,356.306,1.42270,0.18930,3.92290,NAN,NAN,30.10000
7190,0x000E,1,FALSE,358.853,1.43269,0.18930,3.92200,NAN,NAN,30.10000
7240,0x000E,1,FALSE,361.3,1.44229,0.18930,3.92110,NAN,NAN,30.10000
7290,0x000E,1,FALSE,363.798,1.45208,0.18930,3.92030,NAN,NAN,30.10000
7340,0x000E,1,FALSE,366.346,1.46207,0.18930,3.91940,NAN,NAN,30.10000
7390,0x000E,1,FALSE,368.795,1.47167,0.18930,3.91860,NAN,NAN,30.10000
7440,0x000E,1,FALSE,371.342,1.48165,0.18930,3.91770,NAN,NAN,30.10000
7490,0x000E,1,FALSE,373.789,1.49123,0.18930,3.91680,NAN,NAN,30.10000
7540,0x000E,1,FALSE,376.337,1.50121,0.18930,3.91600,NAN,NAN,30.10000
7590,0x000E,1,FALSE,378.782,1.51078,0.18930,3.91510,NAN,NAN,30.10000
7640,0x000E,1,FALSE,381.328,1.52075,0.18940,3.91420,NAN,NAN,30.10000
7690,0x000E,1,FALSE,383.773,1.53032,0.18930,3.91340,NAN,NAN,30.10000
7740,0x000E,1,FALSE,386.269,1.54008,0.18930,3.91250,NAN,NAN,30.10000
7790,0x000E,1,FALSE,388.815,1.55004,0.18930,3.91170,NAN,NAN,30.10000
7840,0x000E,1,FALSE,391.26,1.55961,0.18930,3.91080,NAN,NAN,30.10000
7890,0x000E,1,FALSE,393.805,1.56956,0.18930,3.91000,NAN,NAN,30.10000
7940,0x000E,1,FALSE,396.251,1.57912,0.18930,3.90910,NAN,NAN,30.10000
7990,0x000E,1,FALSE,398.797,1.58907,0.18930,3.90830,NAN,NAN,30.10000
8040,0x000E,1,FALSE,401.243,1.59862,0.18930,3.90750,NAN,NAN,30.10000
8090,0x000E,1,FALSE,403.788,1.60857,0.18930,3.90660,NAN,NAN,30.10000
8140,0x000E,1,FALSE,406.234,1.61812,0.18930,3.90580,NAN,NAN,30.10000
8190,0x000E,1,FALSE,408.729,1.62787,0.18930,3.90490,NAN,NAN,30.10000
8240,0x000E,1,FALSE,411.275,1.63781,0.18940,3.90410,NAN,NAN,30.10000
8290,0x000E,1,FALSE,413.722,1.64736,0.18930,3.90320,NAN,NAN,30.10000
8340,0x000E,1,FALSE,416.268,1.65729,0.18930,3.90240,NAN,NAN,30.10000
8390,0x000E,1,FALSE,418.715,1.66684,0.18930,3.90150,NAN,NAN,30.10000
8440,0x000E,1,FALSE,421.262,1.67678,0.18930,3.90070,NAN,NAN,30.10000
8490,0x000E,1,FALSE,423.709,1.68632,0.18930,3.89980,NAN,NAN,30.10000
8540,0x000E,1,FALSE,426.257,1.69625,0.18930,3.89890,NAN,NAN,30.10000
8590,0x000E,1,FALSE,428.754,1.70599,0.18930,3.89810,NAN,NAN,30.10000
8640,0x000E,1,FALSE,431.201,1.71553,0.18930,3.89730,NAN,NAN,30.10000
8690,0x000E,1,FALSE,433.749,1.72545,0.18930,3.89640,NAN,NAN,30.10000
8740,0x000E,1,FALSE,436.197,1.73499,0.18930,3.89560,NAN,NAN,30.10000
8790,0x000E,1,FALSE,438.744,1.74491,0.18930,3.89470,NAN,NAN,30.10000
8840,0x000E,1,FALSE,441.191,1.75444,0.18930,3.89390,NAN,NAN,30.10000
8890,0x000E,1,FALSE,443.738,1.76435,0.18930,3.89300,NAN,NAN,30.10000
8940,0x000E,1,FALSE,446.184,1.77388,0.18930,3.89220,NAN,NAN,30.10000
8990,0x000E,1,FALSE,448.681,1.78359,0.18930,3.89130,NAN,NAN,30.10000
9040,0x000E,1,FALSE,451.228,1.79350,0.18930,3.89040,NAN,NAN,30.10000
9090,0x000E,1,FALSE,453.675,1.80302,0.18930,3.88960,NAN,NAN,30.10000
9140,0x000E,1,FALSE,456.221,1.81292,0.18930,3.88870,NAN,NAN,30.10000
9190,0x000E,1,FALSE,458.668,1.82243,0.18930,3.88780,NAN,NAN,30.10000
9240,0x000E,1,FALSE,461.213,1.83233,0.18930,3.88700,NAN,NAN,30.10000
9290,0x000E,1,FALSE,463.658,1.84183,0.18930,3.88610,NAN,NAN,30.10000
9340,0x000E,1,FALSE,466.203,1.85172,0.18930,3.88520,NAN,NAN,30.10000
9390,0x000E,1,FALSE,468.649,1.86122,0.18930,3.88430,NAN,NAN,30.10000
9440,0x000E,1,FALSE,471.146,1.87092,0.18930,3.88340,NAN,NAN,30.10000
9490,0x000E,1,FALSE,473.692,1.88080,0.18930,3.88250,NAN,NAN,30.10000
9540,0x000E,1,FALSE,476.138,1.89030,0.18930,3.88160,NAN,NAN,30.10000
9590,0x000E,1,FALSE,478.683,1.90017,0.18930,3.88070,NAN,NAN,30.10000
9640,0x000E,1,FALSE,481.128,1.90966,0.18930,3.87980,NAN,NAN,30.10000
9690,0x000E,1,FALSE,483.674,1.91953,0.18930,3.87890,NAN,NAN,30.10000
9740,0x000E,1,FALSE,486.119,1.92902,0.18930,3.87790,NAN,NAN,30.10000
9790,0x000E,1,FALSE,488.665,1.93889,0.18930,3.87700,NAN,NAN,30.10000
9840,0x000E,1,FALSE,491.111,1.94837,0.18930,3.87610,NAN,NAN,30.10000
9890,0x000E,1,FALSE,493.607,1.95804,0.18930,3.87510,NAN,NAN,30.10000
9940,0x000E,1,FALSE,496.153,1.96791,0.18930,3.87410,NAN,NAN,30.10000
9990,0x000E,1,FALSE,498.599,1.97738,0.18930,3.87310,NAN,NAN,30.10000
10040,0x000E,1,FALSE,501.145,1.98724,0.18930,3.87210,NAN,NAN,30.10000
10090,0x000E,1,FALSE,503.591,1.99671,0.18930,3.87110,NAN,NAN,30.10000
10140,0x000E,1,FALSE,506.136,2.00656,0.18930,3.87010,NAN,NAN,30.10000
10190,0x000E,1,FALSE,508.581,2.01602,0.18930,3.86900,NAN,NAN,30.20000
10240,0x000E,1,FALSE,511.125,2.02586,0.18930,3.86800,NAN,NAN,30.10000
10290,0x000E,1,FALSE,513.571,2.03532,0.18930,3.86690,NAN,NAN,30.10000
10340,0x000E,1,FALSE,516.065,2.04496,0.18930,3.86580,NAN,NAN,30.10000
10390,0x000E,1,FALSE,518.61,2.05480,0.18930,3.86470,NAN,NAN,30.20000
10440,0x000E,1,FALSE,521.057,2.06425,0.18930,3.86360,NAN,NAN,30.10000
10490,0x000E,1,FALSE,523.603,2.07409,0.18930,3.86240,NAN,NAN,30.20000
10540,0x000E,1,FALSE,526.05,2.08353,0.18930,3.86130,NAN,NAN,30.10000
10590,0x000E,1,FALSE,528.596,2.09336,0.18930,3.86010,NAN,NAN,30.10000
10640,0x000E,1,FALSE,531.042,2.10281,0.18930,3.85890,NAN,NAN,30.20000
10690,0x000E,1,FALSE,533.589,2.11263,0.18930,3.85760,NAN,NAN,30.20000
10740,0x000E,1,FALSE,536.035,2.12207,0.18930,3.85640,NAN,NAN,30.20000
10790,0x000E,1,FALSE,538.532,2.13169,0.18930,3.85510,NAN,NAN,30.20000
10840,0x000E,1,FALSE,541.078,2.14150,0.18930,3.85380,NAN,NAN,30.20000
10890,0x000E,1,FALSE,543.524,2.15093,0.18940,3.85250,NAN,NAN,30.20000
10940,0x000E,1,FALSE,546.071,2.16074,0.18930,3.85120,NAN,NAN,30.20000
10990,0x000E,1,FALSE,548.518,2.17016,0.18930,3.84980,NAN,NAN,30.10000
11040,0x000E,1,FALSE,551.064,2.17996,0.18930,3.84840,NAN,NAN,30.10000
11090,0x000E,1,FALSE,553.511,2.18937,0.18930,3.84700,NAN,NAN,30.20000
11140,0x000E,1,FALSE,556.006,2.19897,0.18930,3.84560,NAN,NAN,30.10000
11190,0x000E,1,FALSE,558.551,2.20875,0.18930,3.84420,NAN,NAN,30.10000
11240,0x000E,1,FALSE,560.998,2.21816,0.18930,3.84270,NAN,NAN,30.20000
11290,0x000E,1,FALSE,563.544,2.22794,0.18930,3.84130,NAN,NAN,30.20000
11340,0x000E,1,FALSE,565.991,2.23734,0.18930,3.83990,NAN,NAN,30.10000
11390,0x000E,1,FALSE,568.537,2.24711,0.18930,3.83850,NAN,NAN,30.10000
11440,0x000E,1,FALSE,570.982,2.25649,0.18930,3.83710,NAN,NAN,30.10000
11490,0x000E,1,FALSE,573.529,2.26626,0.18930,3.83580,NAN,NAN,30.10000
11540,0x000E,1,FALSE,575.976,2.27565,0.18930,3.83440,NAN,NAN,30.10000
11590,0x000E,1,FALSE,578.473,2.28522,0.18930,3.83310,NAN,NAN,30.10000
11640,0x000E,1,FALSE,581.021,2.29498,0.18930,3.83190,NAN,NAN,30.10000
11690,0x000E,1,FALSE,583.467,2.30436,0.18930,3.83060,NAN,NAN,30.10000
11740,0x000E,1,FALSE,586.014,2.31411,0.18930,3.82940,NAN,NAN,30.10000
11790,0x000E,1,FALSE,588.461,2.32348,0.18930,3.82830,NAN,NAN,30.10000
11840,0x000E,1,FALSE,591.008,2.33323,0.18930,3.82710,NAN,NAN,30.10000
11890,0x000E,1,FALSE,593.455,2.34259,0.18940,3.82610,NAN,NAN,30.10000
11940,0x000E,1,FALSE,596.002,2.35233,0.18930,3.82500,NAN,NAN,30.10000
11990,0x000E,1,FALSE,598.45,2.36169,0.18930,3.82400,NAN,NAN,30.10000
12040,0x000E,1,FALSE,600.947,2.37124,0.18930,3.82300,NAN,NAN,30.10000
12090,0x000E,1,FALSE,603.493,2.38097,0.18930,3.82210,NAN,NAN,30.10000
12140,0x000E,1,FALSE,605.94,2.39032,0.18930,3.82120,NAN,NAN,30.10000
12190,0x000E,1,FALSE,608.487,2.40005,0.18930,3.82030,NAN,NAN,30.10000
12240,0x000E,1,FALSE,610.934,2.40940,0.18930,3.81950,NAN,NAN,30.10000
12290,0x000E,1,FALSE,613.48,2.41912,0.18930,3.81870,NAN,NAN,30.10000
12340,0x000E,1,FALSE,615.927,2.42846,0.18930,3.81780,NAN,NAN,30.10000
12390,0x000E,1,FALSE,618.473,2.43818,0.18930,3.81710,NAN,NAN,30.10000
12440,0x000E,1,FALSE,620.919,2.44752,0.18930,3.81630,NAN,NAN,30.10000
12490,0x000E,1,FALSE,623.417,2.45705,0.18930,3.81560,NAN,NAN,30.10000
12540,0x000E,1,FALSE,625.964,2.46677,0.18930,3.81480,NAN,NAN,30.10000
12590,0x000E,1,FALSE,628.41,2.47610,0.18930,3.81420,NAN,NAN,30.10000
12640,0x000E,1,FALSE,630.956,2.48580,0.18930,3.81350,NAN,NAN,30.10000
12690,0x000E,1,FALSE,633.401,2.49513,0.18930,3.81280,NAN,NAN,30.10000
12740,0x000E,1,FALSE,635.948,2.50484,0.18930,3.81210,NAN,NAN,30.10000
12790,0x000E,1,FALSE,638.395,2.51416,0.18930,3.81150,NAN,NAN,30.10000
12840,0x000E,1,FALSE,640.941,2.52387,0.18930,3.81080,NAN,NAN,30.10000
12890,0x000E,1,FALSE,643.387,2.53319,0.18930,3.81020,NAN,NAN,30.10000
12940,0x000E,1,FALSE,645.883,2.54270,0.18930,3.80960,NAN,NAN,30.10000
12990,0x000E,1,FALSE,648.429,2.55239,0.18930,3.80900,NAN,NAN,30.10000
13040,0x000E,1,FALSE,650.875,2.56171,0.18930,3.80840,NAN,NAN,30.10000
13090,0x000E,1,FALSE,653.421,2.57140,0.18930,3.80780,NAN,NAN,30.10000
13140,0x000E,1,FALSE,655.867,2.58072,0.18930,3.80720,NAN,NAN,30.00000
13190,0x000E,1,FALSE,658.412,2.59040,0.18930,3.80660,NAN,NAN,30.10000
13240,0x000E,1,FALSE,660.857,2.59971,0.18930,3.80600,NAN,NAN,30.10000
13290,0x000E,1,FALSE,663.353,2.60921,0.18930,3.80540,NAN,NAN,30.10000
13340,0x000E,1,FALSE,665.899,2.61890,0.18930,3.80490,NAN,NAN,30.10000
13390,0x000E,1,FALSE,668.345,2.62820,0.18940,3.80430,NAN,NAN,30.10000
13440,0x000E,1,FALSE,670.89,2.63788,0.18930,3.80380,NAN,NAN,30.10000
13490,0x000E,1,FALSE,673.336,2.64718,0.18940,3.80320,NAN,NAN,30.10000
13540,0x000E,1,FALSE,675.882,2.65687,0.18930,3.80260,NAN,NAN,30.10000
13590,0x000E,1,FALSE,678.329,2.66617,0.18930,3.80210,NAN,NAN,30.10000
13640,0x000E,1,FALSE,680.876,2.67585,0.18930,3.80160,NAN,NAN,30.10000
13690,0x000E,1,FALSE,683.323,2.68515,0.18930,3.80100,NAN,NAN,30.10000
13740,0x000E,1,FALSE,685.82,2.69464,0.18930,3.80050,NAN,NAN,30.10000
13790,0x000E,1,FALSE,688.367,2.70432,0.18930,3.80000,NAN,NAN,30.10000
13840,0x000E,1,FALSE,690.813,2.71361,0.18940,3.79950,NAN,NAN,30.10000
13890,0x000E,1,FALSE,693.359,2.72329,0.18930,3.79890,NAN,NAN,30.10000
13940,0x000E,1,FALSE,695.805,2.73258,0.18930,3.79840,NAN,NAN,30.10000
13990,0x000E,1,FALSE,698.35,2.74224,0.18930,3.79790,NAN,NAN,30.00000
14040,0x000E,1,FALSE,700.795,2.75153,0.18930,3.79740,NAN,NAN,30.10000
14090,0x000E,1,FALSE,703.341,2.76119,0.18930,3.79690,NAN,NAN,30.10000
14140,0x000E,1,FALSE,705.786,2.77048,0.18930,3.79640,NAN,NAN,30.10000
14190,0x000E,1,FALSE,708.281,2.77995,0.18930,3.79590,NAN,NAN,30.10000
14240,0x000E,1,FALSE,710.827,2.78961,0.18930,3.79530,NAN,NAN,30.10000
14290,0x000E,1,FALSE,713.274,2.79889,0.18940,3.79490,NAN,NAN,30.10000
14340,0x000E,1,FALSE,715.82,2.80856,0.18930,3.79440,NAN,NAN,30.10000
14390,0x000E,1,FALSE,718.266,2.81783,0.18940,3.79390,NAN,NAN,30.10000
14440,0x000E,1,FALSE,720.811,2.82749,0.18940,3.79340,NAN,NAN,30.10000
14490,0x000E,1,FALSE,723.255,2.83676,0.18930,3.79290,NAN,NAN,30.00000
14540,0x000E,1,FALSE,725.8,2.84641,0.18930,3.79240,NAN,NAN,30.00000
14590,0x000E,1,FALSE,728.245,2.85568,0.18930,3.79190,NAN,NAN,30.10000
14640,0x000E,1,FALSE,730.742,2.86515,0.18940,3.79150,NAN,NAN,30.10000
14690,0x000E,1,FALSE,733.287,2.87480,0.18930,3.79100,NAN,NAN,30.10000
14740,0x000E,1,FALSE,735.733,2.88407,0.18930,3.79050,NAN,NAN,30.10000
14790,0x000E,1,FALSE,738.279,2.89372,0.18930,3.79010,NAN,NAN,30.10000
14840,0x000E,1,FALSE,740.725,2.90299,0.18940,3.78960,NAN,NAN,30.10000
14890,0x000E,1,FALSE,743.271,2.91263,0.18940,3.78910,NAN,NAN,30.10000
14940,0x000E,1,FALSE,745.717,2.92190,0.18940,3.78860,NAN,NAN,30.10000
14990,0x000E,1,FALSE,748.263,2.93155,0.18940,3.78820,NAN,NAN,30.10000
15040,0x000E,1,FALSE,750.71,2.94081,0.18940,3.78770,NAN,NAN,30.10000
15090,0x000E,1,FALSE,753.205,2.95026,0.18940,3.78730,NAN,NAN,30.10000
15140,0x000E,1,FALSE,755.75,2.95990,0.18940,3.78680,NAN,NAN,30.10000
15190,0x000E,1,FALSE,758.197,2.96917,0.18940,3.78640,NAN,NAN,30.10000
15240,0x000E,1,FALSE,760.743,2.97881,0.18940,3.78590,NAN,NAN,30.10000
15290,0x000E,1,FALSE,763.19,2.98807,0.18940,3.78550,NAN,NAN,30.10000
15340,0x000E,1,FALSE,765.736,2.99770,0.18940,3.78500,NAN,NAN,30.10000
15390,0x000E,1,FALSE,768.181,3.00696,0.18940,3.78460,NAN,NAN,30.00000
15440,0x000E,1,FALSE,770.676,3.01640,0.18930,3.78410,NAN,NAN,30.10000
15490,0x000E,1,FALSE,773.222,3.02603,0.18930,3.78370,NAN,NAN,30.10000
15540,0x000E,1,FALSE,775.668,3.03529,0.18940,3.78330,NAN,NAN,30.10000
15590,0x000E,1,FALSE,778.214,3.04492,0.18930,3.78290,NAN,NAN,30.10000
15640,0x000E,1,FALSE,780.66,3.05417,0.18930,3.78240,NAN,NAN,30.10000
15690,0x000E,1,FALSE,783.206,3.06380,0.18930,3.78200,NAN,NAN,30.10000
15740,0x000E,1,FALSE,785.653,3.07305,0.18930,3.78150,NAN,NAN,30.10000
15790,0x000E,1,FALSE,788.199,3.08268,0.18930,3.78110,NAN,NAN,30.10000
15840,0x000E,1,FALSE,790.646,3.09193,0.18930,3.78070,NAN,NAN,30.10000
15890,0x000E,1,FALSE,793.142,3.10136,0.18940,3.78030,NAN,NAN,30.10000
15940,0x000E,1,FALSE,795.689,3.11099,0.18940,3.77990,NAN,NAN,30.10000
15990,0x000E,1,FALSE,798.136,3.12024,0.18930,3.77950,NAN,NAN,30.10000
16040,0x000E,1,FALSE,800.681,3.12986,0.18930,3.77900,NAN,NAN,30.10000
16090,0x000E,1,FALSE,803.127,3.13910,0.18940,3.77860,NAN,NAN,30.10000
16140,0x000E,1,FALSE,805.672,3.14871,0.18930,3.77820,NAN,NAN,30.10000
16190,0x000E,1,FALSE,808.119,3.15796,0.18930,3.77780,NAN,NAN,30.10000
16240,0x000E,1,FALSE,810.666,3.16758,0.18930,3.77740,NAN,NAN,30.10000
16290,0x000E,1,FALSE,813.113,3.17682,0.18930,3.77700,NAN,NAN,30.10000
16340,0x000E,1,FALSE,815.61,3.18625,0.18930,3.77660,NAN,NAN,30.10000
16390,0x000E,1,FALSE,818.156,3.19587,0.18930,3.77620,NAN,NAN,30.10000
16440,0x000E,1,FALSE,820.602,3.20510,0.18930,3.77580,NAN,NAN,30.10000
16490,0x000E,1,FALSE,823.147,3.21471,0.18940,3.77540,NAN,NAN,30.10000
16540,0x000E,1,FALSE,825.593,3.22394,0.18940,3.77510,NAN,NAN,30.10000
16590,0x000E,1,FALSE,828.139,3.23355,0.18930,3.77460,NAN,NAN,30.10000
16640,0x000E,1,FALSE,830.585,3.24278,0.18930,3.77420,NAN,NAN,30.10000
16690,0x000E,1,FALSE,833.13,3.25239,0.18930,3.77390,NAN,NAN,30.10000
16740,0x000E,1,FALSE,835.576,3.26162,0.18930,3.77350,NAN,NAN,30.10000
16790,0x000E,1,FALSE,838.071,3.27103,0.18940,3.77310,NAN,NAN,30.10000
16840,0x000E,1,FALSE,840.617,3.28064,0.18940,3.77270,NAN,NAN,30.10000
16890,0x000E,1,FALSE,843.063,3.28986,0.18930,3.77230,NAN,NAN,30.10000
16940,0x000E,1,FALSE,845.608,3.29946,0.18930,3.77190,NAN,NAN,30.10000
16990,0x000E,1,FALSE,848.054,3.30869,0.18930,3.77160,NAN,NAN,30.10000
17040,0x000E,1,FALSE,850.599,3.31829,0.18930,3.77120,NAN,NAN,30.10000
17090,0x000E,1,FALSE,853.044,3.32751,0.18940,3.77080,NAN,NAN,30.10000
17140,0x000E,1,FALSE,855.59,3.33711,0.18940,3.77050,NAN,NAN,30.10000
17190,0x000E,1,FALSE,858.036,3.34632,0.18930,3.77010,NAN,NAN,30.10000
17240,0x000E,1,FALSE,860.531,3.35573,0.18930,3.76980,NAN,NAN,30.10000
17290,0x000E,1,FALSE,863.076,3.36532,0.18930,3.76940,NAN,NAN,30.10000
17340,0x000E,1,FALSE,865.52,3.37454,0.18930,3.76900,NAN,NAN,30.10000
17390,0x000E,1,FALSE,868.066,3.38413,0.18930,3.76870,NAN,NAN,30.10000
17440,0x000E,1,FALSE,870.51,3.39334,0.18930,3.76830,NAN,NAN,30.10000
17490,0x000E,1,FALSE,873.054,3.40293,0.18930,3.76800,NAN,NAN,30.10000
17540,0x000E,1,FALSE,875.499,3.41213,0.18930,3.76760,NAN,NAN,30.10000
17590,0x000E,1,FALSE,878.043,3.42172,0.18930,3.76730,NAN,NAN,30.10000
17640,0x000E,1,FALSE,880.537,3.43112,0.18930,3.76690,NAN,NAN,30.10000
17690,0x000E,1,FALSE,882.983,3.44032,0.18940,3.76660,NAN,NAN,30.10000
17740,0x000E,1,FALSE,885.528,3.44991,0.18930,3.76620,NAN,NAN,30.10000
17790,0x000E,1,FALSE,887.973,3.45912,0.18930,3.76590,NAN,NAN,30.10000
17840,0x000E,1,FALSE,890.517,3.46870,0.18930,3.76550,NAN,NAN,30.10000
17890,0x000E,1,FALSE,892.962,3.47790,0.18930,3.76520,NAN,NAN,30.10000
17940,0x000E,1,FALSE,895.507,3.48748,0.18930,3.76490,NAN,NAN,30.10000
17990,0x000E,1,FALSE,897.953,3.49669,0.18930,3.76450,NAN,NAN,30.10000
18040,0x000E,1,FALSE,900.449,3.50609,0.18930,3.76420,NAN,NAN,30.10000
18090,0x000E,1,FALSE,902.993,3.51566,0.18940,3.76390,NAN,NAN,30.10000
18140,0x000E,1,FALSE,905.438,3.52486,0.18930,3.76350,NAN,NAN,30.10000
18190,0x000E,1,FALSE,907.982,3.53444,0.18930,3.76320,NAN,NAN,30.10000
18240,0x000E,1,FALSE,910.428,3.54364,0.18930,3.76290,NAN,NAN,30.10000
18290,0x000E,1,FALSE,912.973,3.55322,0.18940,3.76260,NAN,NAN,30.10000
18340,0x000E,1,FALSE,915.418,3.56242,0.18940,3.76220,NAN,NAN,30.10000
18390,0x000E,1,FALSE,917.963,3.57199,0.18930,3.76190,NAN,NAN,30.10000
18440,0x000E,1,FALSE,920.408,3.58119,0.18930,3.76160,NAN,NAN,30.10000
18490,0x000E,1,FALSE,922.903,3.59057,0.18930,3.76130,NAN,NAN,30.10000
18540,0x000E,1,FALSE,925.449,3.60014,0.18930,3.76100,NAN,NAN,30.10000
18590,0x000E,1,FALSE,927.895,3.60934,0.18940,3.76070,NAN,NAN,30.10000
18640,0x000E,1,FALSE,930.44,3.61891,0.18940,3.76040,NAN,NAN,30.10000
18690,0x000E,1,FALSE,932.885,3.62810,0.18930,3.76010,NAN,NAN,30.10000
18740,0x000E,1,FALSE,935.429,3.63767,0.18930,3.75970,NAN,NAN,30.10000
18790,0x000E,1,FALSE,937.874,3.64686,0.18930,3.75940,NAN,NAN,30.10000
18840,0x000E,1,FALSE,940.418,3.65643,0.18940,3.75910,NAN,NAN,30.10000
18890,0x000E,1,FALSE,942.863,3.66561,0.18940,3.75880,NAN,NAN,30.10000
18940,0x000E,1,FALSE,945.357,3.67499,0.18930,3.75850,NAN,NAN,30.10000
18990,0x000E,1,FALSE,947.901,3.68455,0.18940,3.75820,NAN,NAN,30.10000
19040,0x000E,1,FALSE,950.345,3.69373,0.18930,3.75790,NAN,NAN,30.10000
19090,0x000E,1,FALSE,952.889,3.70329,0.18930,3.75760,NAN,NAN,30.10000
19140,0x000E,1,FALSE,955.333,3.71247,0.18930,3.75730,NAN,NAN,30.10000
19190,0x000E,1,FALSE,957.877,3.72203,0.18930,3.75700,NAN,NAN,30.10000
19240,0x000E,1,FALSE,960.322,3.73122,0.18930,3.75670,NAN,NAN,30.10000
19290,0x000E,1,FALSE,962.867,3.74078,0.18940,3.75650,NAN,NAN,30.10000
19340,0x000E,1,FALSE,965.311,3.74996,0.18940,3.75620,NAN,NAN,30.10000
19390,0x000E,1,FALSE,967.806,3.75933,0.18930,3.75590,NAN,NAN,30.10000
19440,0x000E,1,FALSE,970.35,3.76888,0.18930,3.75560,NAN,NAN,30.10000
19490,0x000E,1,FALSE,972.794,3.77806,0.18930,3.75530,NAN,NAN,30.10000
19540,0x000E,1,FALSE,975.338,3.78761,0.18940,3.75510,NAN,NAN,30.10000
19590,0x000E,1,FALSE,977.781,3.79678,0.18940,3.75480,NAN,NAN,30.10000
19640,0x000E,1,FALSE,980.325,3.80634,0.18930,3.75450,NAN,NAN,30.10000
19690,0x000E,1,FALSE,982.769,3.81551,0.18930,3.75420,NAN,NAN,30.10000
19740,0x000E,1,FALSE,985.313,3.82506,0.18930,3.75400,NAN,NAN,30.10000
19790,0x000E,1,FALSE,987.757,3.83423,0.18930,3.75370,NAN,NAN,30.10000
19840,0x000E,1,FALSE,990.251,3.84360,0.18940,3.75340,NAN,NAN,30.10000
19890,0x000E,1,FALSE,992.795,3.85314,0.18930,3.75310,NAN,NAN,30.10000
19940,0x000E,1,FALSE,995.239,3.86231,0.18930,3.75290,NAN,NAN,30.10000
19990,0x000E,1,FALSE,997.783,3.87186,0.18940,3.75260,NAN,NAN,30.10000
20040,0x000E,1,FALSE,1000.23,3.88104,0.18940,3.75230,NAN,NAN,30.10000
20090,0x000E,1,FALSE,1002.77,3.89058,0.18930,3.75210,NAN,NAN,30.10000
20140,0x000E,1,FALSE,1005.22,3.89976,0.18940,3.75180,NAN,NAN,30.20000
20190,0x000E,1,FALSE,1007.71,3.90912,0.18930,3.75150,NAN,NAN,30.20000
20240,0x000E,1,FALSE,1010.26,3.91867,0.18940,3.75130,NAN,NAN,30.10000
20290,0x000E,1,FALSE,1012.71,3.92785,0.18930,3.75100,NAN,NAN,30.20000
20340,0x000E,1,FALSE,1015.25,3.93740,0.18930,3.75070,NAN,NAN,30.20000
20390,0x000E,1,FALSE,1017.7,3.94657,0.18930,3.75050,NAN,NAN,30.20000
20440,0x000E,1,FALSE,1020.25,3.95612,0.18930,3.75020,NAN,NAN,30.20000
20490,0x000E,1,FALSE,1022.69,3.96529,0.18930,3.74990,NAN,NAN,30.20000
20540,0x000E,1,FALSE,1025.24,3.97484,0.18930,3.74970,NAN,NAN,30.20000
20590,0x000E,1,FALSE,1027.68,3.98401,0.18930,3.74940,NAN,NAN,30.20000
20640,0x000E,1,FALSE,1030.18,3.99336,0.18930,3.74920,NAN,NAN,30.20000
20690,0x000E,1,FALSE,1032.72,4.00291,0.18930,3.74890,NAN,NAN,30.20000
20740,0x000E,1,FALSE,1035.17,4.01208,0.18940,3.74860,NAN,NAN,30.20000
20790,0x000E,1,FALSE,1037.72,4.02162,0.18930,3.74840,NAN,NAN,30.20000
20840,0x000E,1,FALSE,1040.17,4.03080,0.18940,3.74810,NAN,NAN,30.20000
20890,0x000E,1,FALSE,1042.71,4.04034,0.18930,3.74780,NAN,NAN,30.20000
20940,0x000E,1,FALSE,1045.16,4.04950,0.18930,3.74760,NAN,NAN,30.20000
20990,0x000E,1,FALSE,1047.7,4.05904,0.18930,3.74730,NAN,NAN,30.10000
21040,0x000E,1,FALSE,1050.15,4.06821,0.18930,3.74700,NAN,NAN,30.20000
21090,0x000E,1,FALSE,1052.65,4.07756,0.18930,3.74680,NAN,NAN,30.20000
21140,0x000E,1,FALSE,1055.19,4.08710,0.18930,3.74650,NAN,NAN,30.20000
21190,0x000E,1,FALSE,1057.64,4.09626,0.18930,3.74630,NAN,NAN,30.20000
21240,0x000E,1,FALSE,1060.18,4.10579,0.18930,3.74600,NAN,NAN,30.20000
21290,0x000E,1,FALSE,1062.63,4.11495,0.18930,3.74570,NAN,NAN,30.20000
21340,0x000E,1,FALSE,1065.17,4.12449,0.18930,3.74550,NAN,NAN,30.20000
21390,0x000E,1,FALSE,1067.62,4.13365,0.18930,3.74520,NAN,NAN,30.20000
21440,0x000E,1,FALSE,1070.16,4.14318,0.18930,3.74490,NAN,NAN,30.20000
21490,0x000E,1,FALSE,1072.61,4.15234,0.18930,3.74460,NAN,NAN,30.20000
21540,0x000E,1,FALSE,1075.11,4.16169,0.18930,3.74440,NAN,NAN,30.20000
21590,0x000E,1,FALSE,1077.65,4.17122,0.18930,3.74410,NAN,NAN,30.20000
21640,0x000E,1,FALSE,1080.1,4.18037,0.18930,3.74390,NAN,NAN,30.20000
21690,0x000E,1,FALSE,1082.64,4.18990,0.18930,3.74360,NAN,NAN,30.20000
21740,0x000E,1,FALSE,1085.09,4.19906,0.18930,3.74330,NAN,NAN,30.20000
21790,0x000E,1,FALSE,1087.64,4.20859,0.18930,3.74300,NAN,NAN,30.20000
21840,0x000E,1,FALSE,1090.08,4.21775,0.18930,3.74270,NAN,NAN,30.20000
21890,0x000E,1,FALSE,1092.63,4.22727,0.18930,3.74240,NAN,NAN,30.20000
21940,0x000E,1,FALSE,1095.07,4.23642,0.18930,3.74220,NAN,NAN,30.20000
21990,0x000E,1,FALSE,1097.57,4.24576,0.18930,3.74190,NAN,NAN,30.20000
22040,0x000E,1,FALSE,1100.11,4.25528,0.18930,3.74160,NAN,NAN,30.20000
22090,0x000E,1,FALSE,1102.56,4.26443,0.18930,3.74130,NAN,NAN,30.20000
22140,0x000E,1,FALSE,1105.11,4.27395,0.18930,3.74100,NAN,NAN,30.20000
22190,0x000E,1,FALSE,1107.55,4.28310,0.18930,3.74070,NAN,NAN,30.20000
22240,0x000E,1,FALSE,1110.1,4.29262,0.18930,3.74040,NAN,NAN,30.20000
22290,0x000E,1,FALSE,1112.54,4.30177,0.18930,3.74010,NAN,NAN,30.20000
22340,0x000E,1,FALSE,1115.04,4.31109,0.18930,3.73970,NAN,NAN,30.20000
22390,0x000E,1,FALSE,1117.58,4.32061,0.18930,3.73950,NAN,NAN,30.20000
22440,0x000E,1,FALSE,1120.03,4.32976,0.18930,3.73910,NAN,NAN,30.20000
22490,0x000E,1,FALSE,1122.57,4.33928,0.18930,3.73880,NAN,NAN,30.30000
22540,0x000E,1,FALSE,1125.02,4.34842,0.18930,3.73850,NAN,NAN,30.30000
22590,0x000E,1,FALSE,1127.56,4.35794,0.18930,3.73820,NAN,NAN,30.30000
22640,0x000E,1,FALSE,1130.01,4.36707,0.18930,3.73780,NAN,NAN,30.30000
22690,0x000E,1,FALSE,1132.55,4.37658,0.18930,3.73750,NAN,NAN,30.30000
22740,0x000E,1,FALSE,1135,4.38572,0.18930,3.73720,NAN,NAN,30.30000
22790,0x000E,1,FALSE,1137.49,4.39505,0.18930,3.73690,NAN,NAN,30.30000
22840,0x000E,1,FALSE,1140.04,4.40456,0.18940,3.73650,NAN,NAN,30.30000
22890,0x000E,1,FALSE,1142.49,4.41369,0.18930,3.73620,NAN,NAN,30.30000
22940,0x000E,1,FALSE,1145.03,4.42320,0.18940,3.73580,NAN,NAN,30.30000
22990,0x000E,1,FALSE,1147.47,4.43233,0.18930,3.73550,NAN,NAN,30.30000
23040,0x000E,1,FALSE,1150.02,4.44184,0.18940,3.73510,NAN,NAN,30.30000
23090,0x000E,1,FALSE,1152.47,4.45097,0.18940,3.73480,NAN,NAN,30.30000
23140,0x000E,1,FALSE,1155.01,4.46047,0.18930,3.73440,NAN,NAN,30.30000
23190,0x000E,1,FALSE,1157.46,4.46961,0.18930,3.73410,NAN,NAN,30.30000
23240,0x000E,1,FALSE,1159.95,4.47892,0.18940,3.73370,NAN,NAN,30.30000
23290,0x000E,1,FALSE,1162.5,4.48842,0.18930,3.73330,NAN,NAN,30.30000
23340,0x000E,1,FALSE,1164.94,4.49755,0.18940,3.73290,NAN,NAN,30.30000
23390,0x000E,1,FALSE,1167.49,4.50705,0.18930,3.73250,NAN,NAN,30.30000
23440,0x000E,1,FALSE,1169.93,4.51617,0.18930,3.73210,NAN,NAN,30.30000
23490,0x000E,1,FALSE,1172.48,4.52567,0.18930,3.73170,NAN,NAN,30.30000
23540,0x000E,1,FALSE,1174.92,4.53480,0.18930,3.73130,NAN,NAN,30.30000
23590,0x000E,1,FALSE,1177.47,4.54429,0.18930,3.73090,NAN,NAN,30.30000
23640,0x000E,1,FALSE,1179.91,4.55341,0.18930,3.73050,NAN,NAN,30.30000
23690,0x000E,1,FALSE,1182.41,4.56272,0.18930,3.73000,NAN,NAN,30.30000
23740,0x000E,1,FALSE,1184.95,4.57221,0.18930,3.72950,NAN,NAN,30.30000
23790,0x000E,1,FALSE,1187.4,4.58133,0.18930,3.72910,NAN,NAN,30.40000
23840,0x000E,1,FALSE,1189.94,4.59082,0.18930,3.72860,NAN,NAN,30.40000
23890,0x000E,1,FALSE,1192.39,4.59994,0.18930,3.72820,NAN,NAN,30.40000
23940,0x000E,1,FALSE,1194.94,4.60943,0.18930,3.72760,NAN,NAN,30.40000
23990,0x000E,1,FALSE,1197.38,4.61855,0.18930,3.72710,NAN,NAN,30.40000
24040,0x000E,1,FALSE,1199.93,4.62804,0.18930,3.72660,NAN,NAN,30.40000
24090,0x000E,1,FALSE,1202.38,4.63716,0.18930,3.72610,NAN,NAN,30.40000
24140,0x000E,1,FALSE,1204.87,4.64645,0.18930,3.72550,NAN,NAN,30.40000
24190,0x000E,1,FALSE,1207.42,4.65594,0.18930,3.72500,NAN,NAN,30.40000
24240,0x000E,1,FALSE,1209.86,4.66504,0.18930,3.72440,NAN,NAN,30.40000
24290,0x000E,1,FALSE,1212.41,4.67452,0.18930,3.72380,NAN,NAN,30.40000
24340,0x000E,1,FALSE,1214.85,4.68363,0.18930,3.72320,NAN,NAN,30.40000
24390,0x000E,1,FALSE,1217.4,4.69311,0.18930,3.72270,NAN,NAN,30.40000
24440,0x000E,1,FALSE,1219.84,4.70221,0.18930,3.72200,NAN,NAN,30.40000
24490,0x000E,1,FALSE,1222.34,4.71149,0.18930,3.72150,NAN,NAN,30.40000
24540,0x000E,1,FALSE,1224.89,4.72097,0.18940,3.72090,NAN,NAN,30.40000
24590,0x000E,1,FALSE,1227.33,4.73007,0.18940,3.72030,NAN,NAN,30.40000
24640,0x000E,1,FALSE,1229.88,4.73954,0.18930,3.71970,NAN,NAN,30.40000
24690,0x000E,1,FALSE,1232.32,4.74863,0.18930,3.71920,NAN,NAN,30.40000
24740,0x000E,1,FALSE,1234.87,4.75810,0.18930,3.71860,NAN,NAN,30.40000
24790,0x000E,1,FALSE,1237.31,4.76719,0.18930,3.71800,NAN,NAN,30.40000
24840,0x000E,1,FALSE,1239.86,4.77666,0.18930,3.71750,NAN,NAN,30.40000
24890,0x000E,1,FALSE,1242.31,4.78575,0.18930,3.71700,NAN,NAN,30.40000
24940,0x000E,1,FALSE,1244.8,4.79503,0.18930,3.71640,NAN,NAN,30.40000
24990,0x000E,1,FALSE,1247.35,4.80449,0.18930,3.71590,NAN,NAN,30.40000
25040,0x000E,1,FALSE,1249.8,4.81358,0.18930,3.71540,NAN,NAN,30.40000
25090,0x000E,1,FALSE,1252.34,4.82304,0.18940,3.71490,NAN,NAN,30.40000
25140,0x000E,1,FALSE,1254.79,4.83213,0.18930,3.71430,NAN,NAN,30.40000
25190,0x000E,1,FALSE,1257.34,4.84159,0.18940,3.71380,NAN,NAN,30.40000
25240,0x000E,1,FALSE,1259.78,4.85067,0.18940,3.71320,NAN,NAN,30.40000
25290,0x000E,1,FALSE,1262.33,4.86012,0.18930,3.71270,NAN,NAN,30.40000
25340,0x000E,1,FALSE,1264.77,4.86920,0.18930,3.71220,NAN,NAN,30.40000
25390,0x000E,1,FALSE,1267.27,4.87847,0.18930,3.71160,NAN,NAN,30.40000
25440,0x000E,1,FALSE,1269.82,4.88792,0.18930,3.71090,NAN,NAN,30.40000
25490,0x000E,1,FALSE,1272.26,4.89699,0.18930,3.71030,NAN,NAN,30.40000
25540,0x000E,1,FALSE,1274.81,4.90643,0.18930,3.70970,NAN,NAN,30.40000
25590,0x000E,1,FALSE,1277.25,4.91550,0.18930,3.70900,NAN,NAN,30.40000
25640,0x000E,1,FALSE,1279.8,4.92495,0.18930,3.70830,NAN,NAN,30.40000
25690,0x000E,1,FALSE,1282.25,4.93402,0.18930,3.70760,NAN,NAN,30.40000
25740,0x000E,1,FALSE,1284.79,4.94345,0.18940,3.70680,NAN,NAN,30.40000
25790,0x000E,1,FALSE,1287.24,4.95252,0.18930,3.70600,NAN,NAN,30.40000
25840,0x000E,1,FALSE,1289.74,4.96178,0.18930,3.70510,NAN,NAN,30.40000
25890,0x000E,1,FALSE,1292.28,4.97121,0.18930,3.70420,NAN,NAN,30.40000
25940,0x000E,1,FALSE,1294.73,4.98027,0.18930,3.70330,NAN,NAN,30.40000
25990,0x000E,1,FALSE,1297.27,4.98969,0.18930,3.70230,NAN,NAN,30.40000
26040,0x000E,1,FALSE,1299.72,4.99875,0.18930,3.70130,NAN,NAN,30.40000
26090,0x000E,1,FALSE,1302.27,5.00817,0.18930,3.70010,NAN,NAN,30.40000
26140,0x000E,1,FALSE,1304.71,5.01722,0.18930,3.69900,NAN,NAN,30.40000
26190,0x000E,1,FALSE,1307.26,5.02664,0.18930,3.69780,NAN,NAN,30.40000
26240,0x000E,1,FALSE,1309.71,5.03569,0.18930,3.69660,NAN,NAN,30.40000
26290,0x000E,1,FALSE,1312.2,5.04491,0.18930,3.69540,NAN,NAN,30.40000
26340,0x000E,1,FALSE,1314.75,5.05432,0.18930,3.69420,NAN,NAN,30.40000
26390,0x000E,1,FALSE,1317.2,5.06335,0.18930,3.69290,NAN,NAN,30.40000
26440,0x000E,1,FALSE,1319.74,5.07275,0.18930,3.69170,NAN,NAN,30.40000
26490,0x000E,1,FALSE,1322.19,5.08178,0.18930,3.69070,NAN,NAN,30.40000
26540,0x000E,1,FALSE,1324.73,5.09118,0.18930,3.68960,NAN,NAN,30.40000
26590,0x000E,1,FALSE,1327.18,5.10020,0.18930,3.68860,NAN,NAN,30.40000
26640,0x000E,1,FALSE,1329.73,5.10959,0.18930,3.68760,NAN,NAN,30.40000
26690,0x000E,1,FALSE,1332.22,5.11880,0.18930,3.68660,NAN,NAN,30.40000
26740,0x000E,1,FALSE,1334.67,5.12781,0.18930,3.68560,NAN,NAN,30.40000
26790,0x000E,1,FALSE,1337.22,5.13720,0.18930,3.68460,NAN,NAN,30.40000
26840,0x000E,1,FALSE,1339.66,5.14621,0.18930,3.68360,NAN,NAN,30.40000
26890,0x000E,1,FALSE,1342.21,5.15558,0.18930,3.68250,NAN,NAN,30.30000
26940,0x000E,1,FALSE,1344.65,5.16459,0.18930,3.68140,NAN,NAN,30.40000
26990,0x000E,1,FALSE,1347.2,5.17396,0.18930,3.68010,NAN,NAN,30.40000
27040,0x000E,1,FALSE,1349.65,5.18296,0.18930,3.67890,NAN,NAN,30.40000
27090,0x000E,1,FALSE,1352.14,5.19214,0.18930,3.67740,NAN,NAN,30.40000
27140,0x000E,1,FALSE,1354.69,5.20149,0.18930,3.67590,NAN,NAN,30.40000
27190,0x000E,1,FALSE,1357.13,5.21048,0.18930,3.67440,NAN,NAN,30.40000
27240,0x000E,1,FALSE,1359.68,5.21982,0.18930,3.67270,NAN,NAN,30.30000
27290,0x000E,1,FALSE,1362.12,5.22880,0.18930,3.67100,NAN,NAN,30.40000
27340,0x000E,1,FALSE,1364.67,5.23814,0.18930,3.66930,NAN,NAN,30.40000
27390,0x000E,1,FALSE,1367.11,5.24711,0.18930,3.66770,NAN,NAN,30.40000
27440,0x000E,1,FALSE,1369.66,5.25644,0.18930,3.66610,NAN,NAN,30.40000
27490,0x000E,1,FALSE,1372.1,5.26540,0.18930,3.66470,NAN,NAN,30.40000
27540,0x000E,1,FALSE,1374.6,5.27454,0.18930,3.66350,NAN,NAN,30.40000
27590,0x000E,1,FALSE,1377.14,5.28386,0.18930,3.66260,NAN,NAN,30.40000
27640,0x000E,1,FALSE,1379.59,5.29282,0.18930,3.66190,NAN,NAN,30.40000
27690,0x000E,1,FALSE,1382.13,5.30213,0.18930,3.66140,NAN,NAN,30.40000
27740,0x000E,1,FALSE,1384.58,5.31108,0.18930,3.66100,NAN,NAN,30.40000
27790,0x000E,1,FALSE,1387.12,5.32040,0.18940,3.66070,NAN,NAN,30.40000
27840,0x000E,1,FALSE,1389.57,5.32935,0.18930,3.66040,NAN,NAN,30.40000
27890,0x000E,1,FALSE,1392.11,5.33867,0.18930,3.66020,NAN,NAN,30.40000
27940,0x000E,1,FALSE,1394.56,5.34761,0.18930,3.65990,NAN,NAN,30.40000
27990,0x000E,1,FALSE,1397.05,5.35675,0.18930,3.65970,NAN,NAN,30.40000
28040,0x000E,1,FALSE,1399.6,5.36606,0.18930,3.65950,NAN,NAN,30.40000
28090,0x000E,1,FALSE,1402.04,5.37501,0.18930,3.65930,NAN,NAN,30.30000
28140,0x000E,1,FALSE,1404.59,5.38432,0.18930,3.65910,NAN,NAN,30.40000
28190,0x000E,1,FALSE,1407.03,5.39327,0.18930,3.65890,NAN,NAN,30.40000
28240,0x000E,1,FALSE,1409.58,5.40258,0.18930,3.65870,NAN,NAN,30.40000
28290,0x000E,1,FALSE,1412.02,5.41153,0.18930,3.65850,NAN,NAN,30.40000
28340,0x000E,1,FALSE,1414.57,5.42084,0.18930,3.65830,NAN,NAN,30.40000
28390,0x000E,1,FALSE,1417.01,5.42978,0.18930,3.65810,NAN,NAN,30.40000
28440,0x000E,1,FALSE,1419.51,5.43891,0.18930,3.65790,NAN,NAN,30.40000
28490,0x000E,1,FALSE,1422.06,5.44822,0.18930,3.65770,NAN,NAN,30.40000
28540,0x000E,1,FALSE,1424.5,5.45717,0.18930,3.65750,NAN,NAN,30.40000
28590,0x000E,1,FALSE,1427.05,5.46648,0.18940,3.65720,NAN,NAN,30.40000
28640,0x000E,1,FALSE,1429.49,5.47542,0.18930,3.65700,NAN,NAN,30.40000
28690,0x000E,1,FALSE,1432.04,5.48473,0.18930,3.65680,NAN,NAN,30.40000
28740,0x000E,1,FALSE,1434.48,5.49367,0.18940,3.65660,NAN,NAN,30.40000
28790,0x000E,1,FALSE,1437.03,5.50298,0.18930,3.65630,NAN,NAN,30.30000
28840,0x000E,1,FALSE,1439.47,5.51192,0.18930,3.65610,NAN,NAN,30.40000
28890,0x000E,1,FALSE,1441.97,5.52104,0.18930,3.65580,NAN,NAN,30.40000
28940,0x000E,1,FALSE,1444.52,5.53035,0.18930,3.65560,NAN,NAN,30.40000
28990,0x000E,1,FALSE,1446.96,5.53930,0.18930,3.65530,NAN,NAN,30.40000
29040,0x000E,1,FALSE,1449.51,5.54860,0.18930,3.65510,NAN,NAN,30.40000
29090,0x000E,1,FALSE,1451.96,5.55754,0.18930,3.65480,NAN,NAN,30.40000
29140,0x000E,1,FALSE,1454.5,5.56684,0.18930,3.65450,NAN,NAN,30.40000
29190,0x000E,1,FALSE,1456.95,5.57578,0.18930,3.65430,NAN,NAN,30.40000
29240,0x000E,1,FALSE,1459.44,5.58489,0.18930,3.65390,NAN,NAN,30.40000
29290,0x000E,1,FALSE,1461.99,5.59419,0.18930,3.65360,NAN,NAN,30.40000
29340,0x000E,1,FALSE,1464.43,5.60312,0.18930,3.65330,NAN,NAN,30.40000
29390,0x000E,1,FALSE,1466.98,5.61242,0.18930,3.65300,NAN,NAN,30.30000
29440,0x000E,1,FALSE,1469.42,5.62135,0.18930,3.65270,NAN,NAN,30.40000
29490,0x000E,1,FALSE,1471.97,5.63065,0.18930,3.65230,NAN,NAN,30.40000
29540,0x000E,1,FALSE,1474.42,5.63959,0.18940,3.65210,NAN,NAN,30.40000
29590,0x000E,1,FALSE,1476.96,5.64888,0.18940,3.65160,NAN,NAN,30.40000
29640,0x000E,1,FALSE,1479.41,5.65781,0.18930,3.65130,NAN,NAN,30.40000
29690,0x000E,1,FALSE,1481.9,5.66692,0.18930,3.65090,NAN,NAN,30.40000
29740,0x000E,1,FALSE,1484.45,5.67621,0.18940,3.65050,NAN,NAN,30.40000
29790,0x000E,1,FALSE,1486.89,5.68513,0.18940,3.65010,NAN,NAN,30.40000
29840,0x000E,1,FALSE,1489.44,5.69442,0.18930,3.64960,NAN,NAN,30.40000
29890,0x000E,1,FALSE,1491.88,5.70335,0.18940,3.64910,NAN,NAN,30.40000
29940,0x000E,1,FALSE,1494.43,5.71264,0.18930,3.64860,NAN,NAN,30.40000
29990,0x000E,1,FALSE,1496.87,5.72156,0.18930,3.64810,NAN,NAN,30.40000
30040,0x000E,1,FALSE,1499.42,5.73084,0.18930,3.64750,NAN,NAN,30.40000
30090,0x000E,1,FALSE,1501.87,5.73976,0.18930,3.64690,NAN,NAN,30.40000
30140,0x000E,1,FALSE,1504.36,5.74886,0.18930,3.64630,NAN,NAN,30.40000
30190,0x000E,1,FALSE,1506.91,5.75814,0.18930,3.64550,NAN,NAN,30.40000
30240,0x000E,1,FALSE,1509.35,5.76705,0.18930,3.64480,NAN,NAN,30.40000
30290,0x000E,1,FALSE,1511.9,5.77633,0.18930,3.64390,NAN,NAN,30.40000
30340,0x000E,1,FALSE,1514.34,5.78523,0.18930,3.64300,NAN,NAN,30.40000
30390,0x000E,1,FALSE,1516.89,5.79450,0.18930,3.64200,NAN,NAN,30.40000
30440,0x000E,1,FALSE,1519.33,5.80340,0.18930,3.64070,NAN,NAN,30.40000
30490,0x000E,1,FALSE,1521.88,5.81267,0.18930,3.63940,NAN,NAN,30.40000
30540,0x000E,1,FALSE,1524.32,5.82156,0.18930,3.63780,NAN,NAN,30.40000
30590,0x000E,1,FALSE,1526.81,5.83064,0.18930,3.63600,NAN,NAN,30.40000
30640,0x000E,1,FALSE,1529.36,5.83989,0.18930,3.63380,NAN,NAN,30.40000
30690,0x000E,1,FALSE,1531.81,5.84877,0.18930,3.63120,NAN,NAN,30.40000
30740,0x000E,1,FALSE,1534.35,5.85801,0.18930,3.62810,NAN,NAN,30.40000
30790,0x000E,1,FALSE,1536.8,5.86688,0.18940,3.62440,NAN,NAN,30.40000
30840,0x000E,1,FALSE,1539.34,5.87610,0.18940,3.62000,NAN,NAN,30.40000
30890,0x000E,1,FALSE,1541.79,5.88495,0.18930,3.61500,NAN,NAN,30.40000
30940,0x000E,1,FALSE,1544.33,5.89414,0.18930,3.60930,NAN,NAN,30.40000
30990,0x000E,1,FALSE,1546.78,5.90296,0.18930,3.60310,NAN,NAN,30.40000
31040,0x000E,1,FALSE,1549.27,5.91194,0.18930,3.59640,NAN,NAN,30.50000
31090,0x000E,1,FALSE,1551.82,5.92108,0.18930,3.58930,NAN,NAN,30.50000
31140,0x000E,1,FALSE,1554.27,5.92985,0.18930,3.58200,NAN,NAN,30.50000
31190,0x000E,1,FALSE,1556.81,5.93895,0.18930,3.57420,NAN,NAN,30.50000
31240,0x000E,1,FALSE,1559.26,5.94769,0.18930,3.56620,NAN,NAN,30.50000
31290,0x000E,1,FALSE,1561.8,5.95675,0.18930,3.55770,NAN,NAN,30.50000
31340,0x000E,1,FALSE,1564.25,5.96544,0.18930,3.54900,NAN,NAN,30.50000
31390,0x000E,1,FALSE,1566.74,5.97428,0.18930,3.53990,NAN,NAN,30.50000
31440,0x000E,1,FALSE,1569.29,5.98327,0.18930,3.53020,NAN,NAN,30.50000
31490,0x000E,1,FALSE,1571.73,5.99189,0.18930,3.52030,NAN,NAN,30.50000
31540,0x000E,1,FALSE,1574.27,6.00083,0.18930,3.50980,NAN,NAN,30.50000
31590,0x000E,1,FALSE,1576.72,6.00940,0.18940,3.49890,NAN,NAN,30.50000
31640,0x000E,1,FALSE,1579.26,6.01829,0.18930,3.48740,NAN,NAN,30.50000
31690,0x000E,1,FALSE,1581.71,6.02680,0.18930,3.47540,NAN,NAN,30.50000
31740,0x000E,1,FALSE,1584.25,6.03562,0.18930,3.46260,NAN,NAN,30.60000
31790,0x000E,1,FALSE,1586.7,6.04407,0.18930,3.44930,NAN,NAN,30.60000
31840,0x000E,1,FALSE,1589.19,6.05266,0.18930,3.43500,NAN,NAN,30.60000
31890,0x000E,1,FALSE,1591.74,6.06138,0.18930,3.41980,NAN,NAN,30.60000
31940,0x000E,1,FALSE,1594.18,6.06972,0.18930,3.40390,NAN,NAN,30.60000
31990,0x000E,1,FALSE,1596.72,6.07835,0.18930,3.38650,NAN,NAN,30.60000
32040,0x000E,1,FALSE,1599.17,6.08661,0.18930,3.36820,NAN,NAN,30.60000
32090,0x000E,1,FALSE,1601.71,6.09515,0.18930,3.34800,NAN,NAN,30.60000
32140,0x000E,1,FALSE,1604.16,6.10330,0.18930,3.32640,NAN,NAN,30.60000
32190,0x000E,1,FALSE,1606.7,6.11174,0.18930,3.30220,NAN,NAN,30.60000
32240,0x000E,1,FALSE,1609.14,6.11977,0.18930,3.27600,NAN,NAN,30.60000
32290,0x000E,1,FALSE,1611.64,6.12791,0.18930,3.24610,NAN,NAN,30.60000
32340,0x000E,1,FALSE,1614.18,6.13612,0.18930,3.21160,NAN,NAN,30.60000
32390,0x000E,1,FALSE,1616.63,6.14393,0.18930,3.17120,NAN,NAN,30.60000
32440,0x000E,1,FALSE,1619.17,6.15193,0.18930,3.11340,NAN,NAN,30.60000
32490,0x000E,1,FALSE,1621.62,6.15940,0.18930,2.97050,NAN,NAN,30.60000
32538,0x000E,1,FALSE,1624.01,5.00318,0.18930,2.75000,NAN,NAN,30.60000

[DISCHARGE RESULT]
LoRange,FALSE
FinishedBy,1(Cut Voltage)
OpenVolt[V],4.09400
OpenCurr[A],0.00010
OpenTemp[°C],30.20000
StartVolt[V],4.08310
StartCurr[A],0.18930
StartTemp[°C],30.20000
CutoffVolt[V],2.75000
CutoffCurr[A],0.18930
CutoffTemp[°C],30.60000
TimeElapsed[s],32538
Power[Wh],5.00318
StartPulseA[V],NAN
CurrPulseA[V],NAN
StartPulseB[V],NAN
CurrPulseB[V],NAN
TempSet[°C],OFF
TempMon[°C],OFF
HumidSet[%],OFF
HumidMon[%],OFF

[LIFE]
CycleNo,2
Action,Discharge
Start,2021/03/09,1:25:42
End,2021/03/09,10:28:03
Capacity[mAh],1300.92

[IMPEDANCE],AfterCharge,AfterRest
Range,0,0
AutoRange,FALSE,FALSE
Resistance[ohm],NAN,NAN
Reactance[ohm],NAN,NAN